'GyrX','GyrY','GyrZ','AccX','AccY','AccZ','T gyro','T acc','GHz','AHz','Health gyro','Health acc',,,,0
0.004592333,0.003061723,0.003057584,-0.3359105,-0.1753666,-9.518183,23.50175,23.50175,1000,1000,1,1,,,,0
-0.00550174,-0.0181513,0.002126099,0.6084438,-0.01145332,-9.230839,23.50256,23.50256,1000,1000,1,1,,,,0
1.56E-06,0.01883835,-0.001329166,-0.007496351,-0.7481594,-10.164,23.50357,23.50357,1000,1000,1,1,,,,0
-0.008056526,-0.006600827,0.0009651145,0.5832927,-0.1479964,-9.196847,23.50536,23.50536,1000,1000,1,1,,,,0
-0.002448256,-0.003560223,0.0009629381,0.2200675,-0.2355185,-9.291294,23.50923,23.50923,1000,1000,1,1,,,,0
-0.002154613,0.007562024,-0.002137821,0.09925383,-0.5018222,-9.604239,23.51729,23.51729,1000,1000,1,1,,,,0
0.003022037,-0.001168315,-8.44E-05,0.1470266,-0.2646658,-9.645438,23.52089,23.52089,1000,1000,1,1,,,,0
-0.005114578,0.00342411,-0.0003241837,0.1822968,-0.3223259,-9.490501,23.52218,23.52218,1000,1000,1,1,,,,0
0.005023817,-0.001821316,0.001107719,0.2122125,-0.3772614,-9.662421,23.5233,23.5233,1000,1000,1,1,,,,0
-0.003899658,0.002203565,0.0008700447,0.1369944,-0.2733763,-9.63529,23.52449,23.52449,1000,1000,1,1,,,,0
0.002283913,-0.001637516,0.002128324,0.1836171,-0.3353642,-9.521539,23.52549,23.52549,1000,1000,1,1,,,,0
-0.002166248,0.003082066,0.0004566662,0.1493528,-0.2280535,-9.65182,23.52652,23.52652,1000,1000,1,1,,,,0
0.000808253,-0.001744164,0.002122583,0.1450719,-0.271436,-9.636579,23.52765,23.52765,1000,1000,1,1,,,,0
0.0002876324,0.0003478659,0.001882764,0.2260158,-0.3079879,-9.569328,23.52887,23.52887,1000,1000,1,1,,,,0
-0.00138936,-0.001215976,0.001365947,0.1059185,-0.192957,-9.575506,23.53018,23.53018,1000,1000,1,1,,,,0
-4.89E-05,-0.001514005,0.001071277,0.2098027,-0.2865549,-9.597962,23.53154,23.53154,1000,1000,1,1,,,,0
0.0006445445,0.001186372,0.0001844566,0.1989087,-0.2978965,-9.585714,23.53279,23.53279,1000,1000,1,1,,,,0
-9.61E-05,-0.0008607549,0.001309936,0.1179713,-0.2237497,-9.505247,23.53385,23.53385,1000,1000,1,1,,,,0
-0.0004175003,0.0007126338,-6.83E-05,0.2309481,-0.3521628,-9.550907,23.5351,23.5351,1000,1000,1,1,,,,0
-0.0001870246,0.002779449,-0.000270486,0.1756439,-0.2407631,-9.651856,23.5362,23.5362,1000,1000,1,1,,,,0
-0.0004043074,0.0001184694,0.0001932499,0.1519713,-0.2656231,-9.646106,23.53722,23.53722,1000,1000,1,1,,,,0
-0.0007430995,0.001311299,-0.0002199477,0.1770871,-0.3194659,-9.565305,23.53825,23.53825,1000,1000,1,1,,,,0
0.0007044919,0.0004413543,-0.001233632,0.1440319,-0.2200557,-9.656275,23.5391,23.5391,1000,1000,1,1,,,,0
-0.0009728638,-0.001657314,-0.0008883766,0.1687313,-0.2896885,-9.631744,23.53989,23.53989,1000,1000,1,1,,,,0
-0.0001058449,-0.0007573685,-0.0005046175,0.1911525,-0.2559662,-9.584994,23.5406,23.5406,1000,1000,1,1,,,,0
-0.0001735831,-0.0001564954,-0.000562316,0.1255643,-0.2932433,-9.538708,23.54123,23.54123,1000,1000,1,1,,,,0
-0.0008821932,0.0002601601,-0.0003693335,0.1760887,-0.3001493,-9.577171,23.54197,23.54197,1000,1000,1,1,,,,0
0.0002778723,0.001009195,4.89E-05,0.190216,-0.3222284,-9.582856,23.5428,23.5428,1000,1000,1,1,,,,0
-0.0003366422,0.0004137276,0.0004661573,0.155349,-0.3343175,-9.531271,23.54366,23.54366,1000,1000,1,1,,,,0
-0.0007388581,0.0006473584,0.0002773225,0.1641401,-0.2953264,-9.535958,23.54466,23.54466,1000,1000,1,1,,,,0
0.00121303,0.001298715,0.001055121,0.1775585,-0.2928194,-9.643174,23.54574,23.54574,1000,1000,1,1,,,,0
0.0003622457,0.001202601,0.001390654,0.1530644,-0.2959772,-9.610415,23.54676,23.54676,1000,1000,1,1,,,,0
0.0006075818,-7.66E-05,0.001262734,0.1735404,-0.2656142,-9.580471,23.54783,23.54783,1000,1000,1,1,,,,0
0.0004997638,0.001143442,0.00149621,0.1544375,-0.2606975,-9.573428,23.54896,23.54896,1000,1000,1,1,,,,0
0.0009925573,0.000170108,0.001424489,0.1873692,-0.246426,-9.643447,23.55009,23.55009,1000,1000,1,1,,,,0
0.001545287,-0.000492124,0.00046473,0.1911665,-0.276992,-9.59977,23.55126,23.55126,1000,1000,1,1,,,,0
0.000712238,0.0003885375,0.0008159539,0.1618232,-0.2590441,-9.527997,23.55232,23.55232,1000,1000,1,1,,,,0
0.00131412,-0.0002112309,0.001547774,0.1743701,-0.2950413,-9.552538,23.55317,23.55317,1000,1000,1,1,,,,0
2.51E-05,0.0008439512,0.0003252746,0.183374,-0.3066213,-9.602175,23.55402,23.55402,1000,1000,1,1,,,,0
0.0008985292,1.02E-05,0.0002526204,0.1854653,-0.2849957,-9.560049,23.55472,23.55472,1000,1000,1,1,,,,0
-0.0002839357,0.001072347,0.0002525441,0.1549186,-0.3085757,-9.5336,23.55544,23.55544,1000,1000,1,1,,,,0
4.98E-05,0.001440414,0.0002907088,0.1754597,-0.2862573,-9.595586,23.55587,23.55587,1000,1000,1,1,,,,0
0.0004086958,-0.000101738,-0.0001962017,0.1720282,-0.2883764,-9.596786,23.5564,23.5564,1000,1000,1,1,,,,0
7.57E-05,0.0001540133,0.000382011,0.1488003,-0.2807069,-9.562675,23.55712,23.55712,1000,1000,1,1,,,,0
-0.0001118433,0.0001388687,0.000523614,0.1519976,-0.2546048,-9.61188,23.55795,23.55795,1000,1000,1,1,,,,0
-4.09E-05,-0.0002915824,0.0001724728,0.1542706,-0.2927427,-9.603765,23.55871,23.55871,1000,1000,1,1,,,,0
-0.000662245,0.0002378833,0.0002769175,0.173263,-0.2970061,-9.61389,23.55946,23.55946,1000,1000,1,1,,,,0
0.0008852364,-0.000243502,0.0008252382,0.1636821,-0.303945,-9.56358,23.56024,23.56024,1000,1000,1,1,,,,0
-0.0007616134,0.00124659,2.43E-05,0.1576284,-0.3020465,-9.567762,23.56072,23.56072,1000,1000,1,1,,,,0
-0.0007620694,0.001052269,0.0007645915,0.1622653,-0.3020403,-9.620215,23.56114,23.56114,1000,1000,1,1,,,,0
-0.0005091107,4.44E-05,0.0008568789,0.1881591,-0.3090014,-9.592688,23.56162,23.56162,1000,1000,1,1,,,,0
-0.0002184511,0.0001020446,0.0004080753,0.1695784,-0.2928141,-9.549721,23.56201,23.56201,1000,1000,1,1,,,,0
-5.32E-05,0.002136277,0.0008709806,0.1751623,-0.2840419,-9.610102,23.56224,23.56224,1000,1000,1,1,,,,0
-0.0001337066,0.0005135976,0.001599423,0.1883463,-0.2558827,-9.635213,23.56235,23.56235,1000,1000,1,1,,,,0
-0.0004818703,0.0001921104,0.001030314,0.1825647,-0.2609201,-9.625709,23.5625,23.5625,1000,1000,1,1,,,,0
0.0007291086,0.0002211367,0.0006702476,0.1702184,-0.2587399,-9.58173,23.5627,23.5627,1000,1000,1,1,,,,0
-0.0001378255,0.0001168918,0.0006927031,0.188553,-0.2539703,-9.606947,23.56257,23.56257,1000,1000,1,1,,,,0
0.00101815,-0.0006307036,0.0005663872,0.1814334,-0.281668,-9.593508,23.56292,23.56292,1000,1000,1,1,,,,0
-0.0001039029,-0.0008239312,0.0007093572,0.1862631,-0.2664705,-9.601156,23.56332,23.56332,1000,1000,1,1,,,,0
0.001191737,-0.000940297,-9.97E-05,0.17125,-0.2866465,-9.58416,23.56371,23.56371,1000,1000,1,1,,,,0
0.0004425826,4.86E-06,0.0002385081,0.1783386,-0.3077302,-9.595887,23.56385,23.56385,1000,1000,1,1,,,,0
-0.0001053639,-5.38E-05,0.0001019778,0.1729188,-0.3113055,-9.565853,23.56359,23.56359,1000,1000,1,1,,,,0
0.0003168951,-0.0004407346,-0.0002209703,0.1591474,-0.3068475,-9.564571,23.5634,23.5634,1000,1000,1,1,,,,0
9.35E-05,0.0002348757,-0.000122323,0.1404775,-0.2869832,-9.56764,23.5634,23.5634,1000,1000,1,1,,,,0
-0.0004158608,0.0001752308,-9.45E-05,0.1563729,-0.2733723,-9.601158,23.56359,23.56359,1000,1000,1,1,,,,0
-0.00118015,0.0004349414,0.0008638599,0.1537796,-0.2771215,-9.57783,23.564,23.564,1000,1000,1,1,,,,0
3.81E-06,0.0008633657,0.0007619866,0.1387714,-0.2612163,-9.564251,23.56446,23.56446,1000,1000,1,1,,,,0
-0.0001113565,0.0005214193,0.0006864356,0.1609706,-0.2778818,-9.583645,23.56494,23.56494,1000,1000,1,1,,,,0
-0.00100068,0.000950298,0.0003345578,0.1672959,-0.2994667,-9.594155,23.56521,23.56521,1000,1000,1,1,,,,0
-0.0001037895,-0.0001282343,0.0007148249,0.1497552,-0.3023178,-9.589477,23.56557,23.56557,1000,1000,1,1,,,,0
0.0001143927,0.0013358,0.000432099,0.1654225,-0.3121038,-9.583088,23.56586,23.56586,1000,1000,1,1,,,,0
-0.0006864212,0.0009655721,-4.85E-05,0.1719539,-0.2858399,-9.612957,23.56642,23.56642,1000,1000,1,1,,,,0
-0.0002610065,0.0008231463,-0.0003072567,0.1811157,-0.2979317,-9.600489,23.56707,23.56707,1000,1000,1,1,,,,0
-0.0003614867,0.0001489107,2.23E-05,0.2070863,-0.2609998,-9.575199,23.56783,23.56783,1000,1000,1,1,,,,0
-9.00E-05,0.0005189916,3.67E-05,0.1908496,-0.2757296,-9.581956,23.56863,23.56863,1000,1000,1,1,,,,0
0.0001236672,0.0009199899,0.0001828395,0.1930012,-0.2782584,-9.620392,23.56936,23.56936,1000,1000,1,1,,,,0
0.0001713306,0.0003673338,-0.0003477478,0.1936587,-0.276777,-9.604046,23.57017,23.57017,1000,1000,1,1,,,,0
0.0003731865,0.0003322759,0.0002260204,0.1942677,-0.2884727,-9.573771,23.57095,23.57095,1000,1000,1,1,,,,0
-0.0001712581,0.0008903999,0.0003077452,0.1874242,-0.2952809,-9.596729,23.57182,23.57182,1000,1000,1,1,,,,0
0.0004688846,6.02E-06,0.0003526683,0.1678214,-0.2999986,-9.654042,23.57273,23.57273,1000,1000,1,1,,,,0
0.0002699244,-0.000381011,0.0004879924,0.1624546,-0.3001665,-9.592741,23.57352,23.57352,1000,1000,1,1,,,,0
0.001013924,-0.0003958095,0.0009629006,0.1568451,-0.2934929,-9.571534,23.57449,23.57449,1000,1000,1,1,,,,0
0.0006244082,-0.0001187957,0.001010836,0.163701,-0.3229577,-9.539083,23.57545,23.57545,1000,1000,1,1,,,,0
0.0002971792,-4.66E-05,0.001004366,0.1623847,-0.2969113,-9.591916,23.57635,23.57635,1000,1000,1,1,,,,0
6.50E-05,0.0004273166,0.0005198109,0.1665672,-0.3027846,-9.561926,23.57733,23.57733,1000,1000,1,1,,,,0
-0.000606803,0.0007249195,0.0007767121,0.1467814,-0.2866662,-9.522097,23.57839,23.57839,1000,1000,1,1,,,,0
-0.0003114719,0.001718057,0.001066552,0.1512589,-0.2944097,-9.570488,23.57935,23.57935,1000,1000,1,1,,,,0
-0.000297541,0.001690284,0.000852935,0.169775,-0.2911709,-9.592798,23.5801,23.5801,1000,1000,1,1,,,,0
-0.0004148362,0.001432753,0.0008335616,0.145915,-0.267612,-9.560305,23.58089,23.58089,1000,1000,1,1,,,,0
-0.000104982,0.001447379,0.0002069248,0.1550667,-0.275279,-9.596025,23.58166,23.58166,1000,1000,1,1,,,,0
-0.001276262,0.001497434,0.001123912,0.1756016,-0.2824161,-9.625071,23.58258,23.58258,1000,1000,1,1,,,,0
-0.0005758571,0.0007638418,0.000757842,0.1707262,-0.2872948,-9.60532,23.58346,23.58346,1000,1000,1,1,,,,0
-0.001254908,0.002180544,-0.000233855,0.1732212,-0.2957842,-9.585127,23.58407,23.58407,1000,1000,1,1,,,,0
0.001184872,-0.001555744,0.0003786181,0.1920857,-0.2492121,-9.608139,23.58464,23.58464,1000,1000,1,1,,,,0
-0.001668382,0.001786306,-0.0006841397,0.2280488,-0.311441,-9.588699,23.58526,23.58526,1000,1000,1,1,,,,0
0.00249986,-0.0006977681,-0.0007802598,0.1779021,-0.2599545,-9.552882,23.58627,23.58627,1000,1000,1,1,,,,0
-0.001905376,0.001445217,-0.001173,0.2048713,-0.2489005,-9.616731,23.58724,23.58724,1000,1000,1,1,,,,0
0.001740792,-0.000256687,-0.0002128593,0.125336,-0.3394575,-9.56192,23.58808,23.58808,1000,1000,1,1,,,,0
3.94E-06,0.0003104587,-0.0008294639,0.2180991,-0.2419689,-9.605162,23.58876,23.58876,1000,1000,1,1,,,,0
0.0005792805,-9.40E-05,-9.71E-05,0.156776,-0.3531423,-9.57037,23.58947,23.58947,1000,1000,1,1,,,,0
0.000940272,-0.0004294173,-1.14E-05,0.1790794,-0.2719855,-9.622316,23.59026,23.59026,1000,1000,1,1,,,,0
8.19E-05,-0.0004720546,0.0002424421,0.1089157,-0.3268142,-9.586818,23.59066,23.59066,1000,1000,1,1,,,,0
0.0001704905,-0.001286335,0.000541382,0.1556404,-0.2783767,-9.600374,23.59092,23.59092,1000,1000,1,1,,,,0
-0.001593025,0.0005657799,0.0002456628,0.1495508,-0.3262145,-9.571012,23.59135,23.59135,1000,1000,1,1,,,,0
0.001817356,-0.0009839789,0.0006656679,0.1625177,-0.2832178,-9.554624,23.59201,23.59201,1000,1000,1,1,,,,0
-0.001770185,0.0009474849,0.001765415,0.167611,-0.2755502,-9.571796,23.5928,23.5928,1000,1000,1,1,,,,0
0.000623183,0.000854953,0.001443584,0.170828,-0.3238531,-9.564659,23.59355,23.59355,1000,1000,1,1,,,,0
-0.0003847627,0.002209236,0.001464959,0.1695982,-0.2577739,-9.585036,23.5944,23.5944,1000,1000,1,1,,,,0
0.0001645519,0.002054367,0.001464846,0.1770834,-0.2951222,-9.565689,23.59515,23.59515,1000,1000,1,1,,,,0
-0.0001484429,0.001583605,0.0007370178,0.195408,-0.2867693,-9.607059,23.59604,23.59604,1000,1000,1,1,,,,0
-0.0006746438,0.0009629908,0.0008918268,0.2012526,-0.2718983,-9.632787,23.59685,23.59685,1000,1000,1,1,,,,0
0.0002404831,-0.0006517022,0.000244634,0.1896044,-0.271156,-9.58956,23.59772,23.59772,1000,1000,1,1,,,,0
0.0002370561,-0.0002269642,3.25E-05,0.2006871,-0.2740906,-9.624041,23.59861,23.59861,1000,1000,1,1,,,,0
0.0003271968,0.0007984278,-0.0005327808,0.1793804,-0.2680841,-9.617517,23.59928,23.59928,1000,1000,1,1,,,,0
-0.0001120202,-0.0001340432,2.27E-06,0.2012535,-0.2710496,-9.608392,23.59988,23.59988,1000,1000,1,1,,,,0
-0.0001917631,-0.0003136598,-0.0007638655,0.191545,-0.2828751,-9.587177,23.60056,23.60056,1000,1000,1,1,,,,0
-0.0003959953,-7.26E-06,-0.0002050551,0.1714896,-0.2821639,-9.593105,23.60134,23.60134,1000,1000,1,1,,,,0
-0.0003050177,-0.0004107823,-0.0004144344,0.1682285,-0.2852591,-9.613581,23.60231,23.60231,1000,1000,1,1,,,,0
0.000699418,-0.0008011605,-0.0002789948,0.1596847,-0.3230616,-9.596852,23.60298,23.60298,1000,1000,1,1,,,,0
0.0001903118,-9.00E-05,0.0003431391,0.1442267,-0.323265,-9.581729,23.60353,23.60353,1000,1000,1,1,,,,0
-0.0005312996,-0.0003737636,0.0004907598,0.1571141,-0.3093248,-9.58985,23.6041,23.6041,1000,1000,1,1,,,,0
0.0006635612,-0.0006584349,0.0002926783,0.1545221,-0.3136232,-9.59407,23.60465,23.60465,1000,1000,1,1,,,,0
-0.0005035806,-0.0003434485,0.0004601525,0.1599009,-0.2904558,-9.567831,23.60525,23.60525,1000,1000,1,1,,,,0
-0.0005070911,0.0004325553,0.0003688306,0.155027,-0.3104181,-9.585648,23.60594,23.60594,1000,1000,1,1,,,,0
-0.0007068387,0.001540754,0.0008581789,0.1457152,-0.2816868,-9.574539,23.60688,23.60688,1000,1000,1,1,,,,0
0.0002461444,0.0007715871,0.001531522,0.1546137,-0.2972215,-9.57567,23.6081,23.6081,1000,1000,1,1,,,,0
-0.0004240448,0.001497084,0.001387188,0.1577539,-0.2916848,-9.540999,23.60957,23.60957,1000,1000,1,1,,,,0
-0.0005526778,0.001692885,0.001419487,0.1686945,-0.2963767,-9.565586,23.61108,23.61108,1000,1000,1,1,,,,0
-0.0007572991,0.001723412,0.0009080471,0.1902858,-0.2973951,-9.598299,23.61253,23.61253,1000,1000,1,1,,,,0
-0.0002799185,0.0009052137,0.0008466722,0.1889274,-0.299277,-9.60543,23.61378,23.61378,1000,1000,1,1,,,,0
-0.0006725545,0.0002332418,0.0006125364,0.1827453,-0.2710123,-9.616711,23.61489,23.61489,1000,1000,1,1,,,,0
-0.0003612826,0.0003818984,-0.0003297464,0.2062075,-0.2600783,-9.620394,23.61586,23.61586,1000,1000,1,1,,,,0
-0.0002875692,-0.0001180449,0.0007230106,0.2158952,-0.2508613,-9.600217,23.61686,23.61686,1000,1000,1,1,,,,0
-0.0006531453,-0.001001474,0.0002295825,0.1872981,-0.2751453,-9.57765,23.61777,23.61777,1000,1000,1,1,,,,0
-9.32E-05,-7.49E-05,-0.0008847593,0.178425,-0.2758281,-9.58328,23.61872,23.61872,1000,1000,1,1,,,,0
0.0002793032,-0.0008955599,-0.0006715819,0.1658672,-0.2627241,-9.558337,23.61971,23.61971,1000,1000,1,1,,,,0
0.0001053416,0.001853838,-0.000907928,0.2172561,-0.2961071,-9.590671,23.62106,23.62106,1000,1000,1,1,,,,0
0.001260161,-0.001403875,-0.001115373,0.08830832,-0.2525518,-9.536385,23.62238,23.62238,1000,1000,1,1,,,,0
-0.002015394,0.0007583671,-0.0008772964,0.1848797,-0.3540756,-9.587785,23.62379,23.62379,1000,1000,1,1,,,,0
0.001694278,-0.001052073,-0.0003979742,0.1079928,-0.3293085,-9.566488,23.62518,23.62518,1000,1000,1,1,,,,0
-0.002079999,-0.0006631862,0.000209992,0.176014,-0.2410329,-9.612795,23.62629,23.62629,1000,1000,1,1,,,,0
0.0007676205,0.002213976,-0.0008678187,0.1421579,-0.3810591,-9.539028,23.62739,23.62739,1000,1000,1,1,,,,0
0.001099659,-0.0003795651,0.0005439675,0.1391135,-0.2497112,-9.59865,23.62835,23.62835,1000,1000,1,1,,,,0
-0.0004290184,0.001458548,0.001910197,0.1445171,-0.3654747,-9.56274,23.62909,23.62909,1000,1000,1,1,,,,0
0.002228467,0.001480435,0.001490717,0.1913271,-0.2507278,-9.565747,23.62978,23.62978,1000,1000,1,1,,,,0
0.0002030489,0.001759412,0.00100951,0.1536205,-0.310756,-9.553451,23.63046,23.63046,1000,1000,1,1,,,,0
0.0009729146,0.0008306168,0.001501696,0.1945558,-0.2948326,-9.624147,23.63121,23.63121,1000,1000,1,1,,,,0
-0.00122424,0.00202752,0.002472359,0.1685851,-0.2882013,-9.620037,23.63182,23.63182,1000,1000,1,1,,,,0
0.001968986,0.000608211,0.001175335,0.1908903,-0.2881466,-9.61219,23.63232,23.63232,1000,1000,1,1,,,,0
-0.001031275,0.0007947013,0.0006832432,0.2115478,-0.2673295,-9.639692,23.63275,23.63275,1000,1000,1,1,,,,0
-0.0002379894,0.0006784777,0.0007407508,0.1857023,-0.3260927,-9.609388,23.63317,23.63317,1000,1000,1,1,,,,0
-0.0009752257,0.0003649833,0.0004628684,0.2149508,-0.2157293,-9.59868,23.63335,23.63335,1000,1000,1,1,,,,0
3.62E-05,9.95E-05,0.0003142897,0.1792177,-0.293184,-9.574274,23.63374,23.63374,1000,1000,1,1,,,,0
0.0002445771,0.0004774502,-9.67E-05,0.2106423,-0.2799585,-9.582185,23.63461,23.63461,1000,1000,1,1,,,,0
-3.41E-05,0.0007423162,-0.0005881729,0.1731966,-0.2496773,-9.568862,23.63597,23.63597,1000,1000,1,1,,,,0
0.00105165,-0.0008173129,-0.001579815,0.183458,-0.2700677,-9.609488,23.63754,23.63754,1000,1000,1,1,,,,0
0.001081806,0.0001140601,-0.001891183,0.1581071,-0.2833564,-9.580917,23.63885,23.63885,1000,1000,1,1,,,,0
0.0008382987,0.0004828479,-0.0007307847,0.1767355,-0.3069632,-9.595123,23.64008,23.64008,1000,1000,1,1,,,,0
-0.000460964,-9.30E-05,-0.0006129452,0.1542329,-0.2774563,-9.583324,23.64132,23.64132,1000,1000,1,1,,,,0
0.001887798,-0.0003722469,-0.0007580315,0.1563836,-0.2789809,-9.606493,23.64235,23.64235,1000,1000,1,1,,,,0
0.0001207819,0.000299814,-0.0004513959,0.1715778,-0.3349532,-9.587359,23.64319,23.64319,1000,1000,1,1,,,,0
0.0002889892,0.0003251783,0.0002286169,0.1699328,-0.3160155,-9.564414,23.64396,23.64396,1000,1000,1,1,,,,0
0.0002474266,0.0005955494,0.0004426442,0.1863859,-0.2815292,-9.586617,23.64464,23.64464,1000,1000,1,1,,,,0
0.0005991117,0.0006854132,0.0001291411,0.1395583,-0.2973839,-9.560902,23.6452,23.6452,1000,1000,1,1,,,,0
-0.0009515131,0.001377011,0.001354768,0.1685476,-0.2980421,-9.561424,23.64561,23.64561,1000,1000,1,1,,,,0
-0.001740666,0.001848505,0.001540077,0.1603124,-0.2856975,-9.564799,23.64587,23.64587,1000,1000,1,1,,,,0
-0.0004084905,0.001375888,0.001778636,0.1783646,-0.254721,-9.576392,23.64606,23.64606,1000,1000,1,1,,,,0
-0.0005594488,0.00127783,0.001308042,0.1681295,-0.3159133,-9.576451,23.64587,23.64587,1000,1000,1,1,,,,0
-0.001002015,0.001241473,0.001245142,0.1825826,-0.2877196,-9.618387,23.64602,23.64602,1000,1000,1,1,,,,0
-0.000365019,0.0009826941,0.0008743238,0.1803391,-0.2618667,-9.626972,23.64585,23.64585,1000,1000,1,1,,,,0
-4.54E-05,0.0003505874,0.0005302229,0.1784223,-0.2760212,-9.628084,23.64616,23.64616,1000,1000,1,1,,,,0
-0.0002893372,0.0002932386,-0.0005417478,0.1829834,-0.2905826,-9.606424,23.6469,23.6469,1000,1000,1,1,,,,0
0.0002536998,-0.0002163647,-7.88E-05,0.1866453,-0.2580035,-9.593957,23.64796,23.64796,1000,1000,1,1,,,,0
0.0001372487,3.12E-05,-0.00037727,0.187634,-0.2615262,-9.578263,23.64914,23.64914,1000,1000,1,1,,,,0
0.001025098,-0.0006021927,-0.0004211923,0.1863401,-0.288077,-9.583843,23.65043,23.65043,1000,1000,1,1,,,,0
0.0006067013,0.0003862488,-0.0009588635,0.1650969,-0.2926262,-9.537547,23.65153,23.65153,1000,1000,1,1,,,,0
0.0006773939,0.0005468619,-0.00076291,0.1638717,-0.2786261,-9.619806,23.65265,23.65265,1000,1000,1,1,,,,0
0.0008873977,0.0009526837,-0.0009367111,0.1558009,-0.2878032,-9.597589,23.65367,23.65367,1000,1000,1,1,,,,0
0.001716998,0.0001333082,-0.0006320049,0.1581601,-0.3196069,-9.593845,23.65443,23.65443,1000,1000,1,1,,,,0
-0.0006021301,9.23E-05,-0.001300965,0.1501809,-0.3038584,-9.582669,23.65529,23.65529,1000,1000,1,1,,,,0
-0.0002688663,0.0001908162,-0.0003569999,0.1598828,-0.293805,-9.612698,23.65643,23.65643,1000,1000,1,1,,,,0
0.0005280821,0.0007522937,-0.0003882814,0.1584177,-0.2927365,-9.60536,23.65759,23.65759,1000,1000,1,1,,,,0
0.000151302,0.0007537619,0.0008876551,0.1760973,-0.3257268,-9.599208,23.65876,23.65876,1000,1000,1,1,,,,0
-0.000641169,0.0003048011,0.000861981,0.1646191,-0.2917967,-9.587881,23.65997,23.65997,1000,1000,1,1,,,,0
-0.0003974546,0.0003805672,0.001177008,0.1698811,-0.2940174,-9.569433,23.66101,23.66101,1000,1000,1,1,,,,0
-0.0005592434,0.001221986,0.001075313,0.1682744,-0.3101687,-9.56609,23.66188,23.66188,1000,1000,1,1,,,,0
-0.0007912142,0.001777113,0.002252905,0.1855638,-0.3116403,-9.583232,23.6627,23.6627,1000,1000,1,1,,,,0
-0.0006528856,0.001617332,0.002004337,0.1841929,-0.2942305,-9.591788,23.66339,23.66339,1000,1000,1,1,,,,0
-0.0008444718,0.001344166,0.0005601729,0.1975102,-0.2874076,-9.58728,23.66395,23.66395,1000,1000,1,1,,,,0
-0.001060808,0.000532025,0.0003214099,0.1942029,-0.2805825,-9.599962,23.66464,23.66464,1000,1000,1,1,,,,0
-0.002054635,0.0002744449,0.0002993531,0.1774722,-0.2905502,-9.613637,23.66544,23.66544,1000,1000,1,1,,,,0
-0.0003049209,0.0009012009,-0.0008384303,0.1845623,-0.2401508,-9.604714,23.66599,23.66599,1000,1000,1,1,,,,0
0.0004896983,-5.72E-05,-0.0001339302,0.1684104,-0.2387423,-9.617176,23.66674,23.66674,1000,1000,1,1,,,,0
-0.0001115578,6.81E-06,-0.0001203985,0.175781,-0.2762216,-9.57222,23.66741,23.66741,1000,1000,1,1,,,,0
-0.0006441064,0.000520944,-0.0006409383,0.1648994,-0.2817818,-9.597159,23.66786,23.66786,1000,1000,1,1,,,,0
-0.0007457815,0.0009728266,-0.001024658,0.1718406,-0.2722661,-9.593018,23.66829,23.66829,1000,1000,1,1,,,,0
-0.0005031273,0.0009377659,-0.001139094,0.1622351,-0.2881526,-9.585426,23.66871,23.66871,1000,1000,1,1,,,,0
-3.25E-05,0.0005249213,-0.0005064728,0.1531127,-0.3242337,-9.569798,23.66935,23.66935,1000,1000,1,1,,,,0
-0.000801105,0.001071938,3.93E-05,0.1526267,-0.2944199,-9.5844,23.66999,23.66999,1000,1000,1,1,,,,0
0.0001673549,0.0006251087,0.0001466278,0.1719647,-0.2973246,-9.562736,23.67051,23.67051,1000,1000,1,1,,,,
-0.0001219937,0.001044832,-0.0001824493,0.155651,-0.3065267,-9.586035,23.6708,23.6708,1000,1000,1,1,,,,
-0.0005814365,0.000574218,0.000450205,0.1596807,-0.3074245,-9.557077,23.67138,23.67138,1000,1000,1,1,,,,
-0.0007637717,0.0001033724,0.0003206324,0.1746735,-0.2899103,-9.593473,23.67186,23.67186,1000,1000,1,1,,,,
-0.0005393638,-0.0001735386,0.001049282,0.1703296,-0.2976671,-9.591011,23.67224,23.67224,1000,1000,1,1,,,,
-0.0006307172,0.001333441,0.001174633,0.1816119,-0.3008305,-9.562259,23.67255,23.67255,1000,1000,1,1,,,,
-0.001608345,0.002201631,0.00083788,0.1820846,-0.2766853,-9.601136,23.67314,23.67314,1000,1000,1,1,,,,
-0.000515454,0.001171202,0.0009509844,0.1808177,-0.297972,-9.602869,23.67382,23.67382,1000,1000,1,1,,,,
-0.0004344496,0.0005032067,0.0007247769,0.1822947,-0.2901854,-9.612046,23.67436,23.67436,1000,1000,1,1,,,,
-0.001587486,0.0006804821,0.0008261906,0.1774669,-0.2764714,-9.598846,23.67492,23.67492,1000,1000,1,1,,,,
-0.001134529,0.001082875,0.0008291219,0.2011289,-0.2835227,-9.603865,23.6756,23.6756,1000,1000,1,1,,,,
-0.0004476641,0.000804551,0.0002540501,0.1855677,-0.2751913,-9.604486,23.67659,23.67659,1000,1000,1,1,,,,
-0.001320966,0.0002101245,-0.0001430784,0.1834806,-0.2796224,-9.601284,23.6777,23.6777,1000,1000,1,1,,,,
-0.0006123352,0.001263103,-0.0002619932,0.1915614,-0.2498429,-9.59455,23.6788,23.6788,1000,1000,1,1,,,,
-0.001976567,0.0003679974,-0.0002273111,0.1806516,-0.2416668,-9.596471,23.67979,23.67979,1000,1000,1,1,,,,
-0.000712788,-0.0001305488,-0.0008416623,0.1597072,-0.2602776,-9.582191,23.68088,23.68088,1000,1000,1,1,,,,
-0.0001063987,0.0001485875,-0.0008550807,0.1885518,-0.2842121,-9.587349,23.68195,23.68195,1000,1000,1,1,,,,
-0.0005196113,0.0003136063,-0.0004303364,0.1692414,-0.3151944,-9.578888,23.68286,23.68286,1000,1000,1,1,,,,
-0.0003184418,0.0006716739,-0.000610658,0.1567571,-0.2893923,-9.579442,23.68396,23.68396,1000,1000,1,1,,,,
0.0003280116,0.0002852026,-0.0008797316,0.1587092,-0.305086,-9.584025,23.68511,23.68511,1000,1000,1,1,,,,
0.0007867411,0.0004349997,5.75E-05,0.1536025,-0.3196447,-9.538807,23.68642,23.68642,1000,1000,1,1,,,,
0.0002421127,0.0007543578,0.0002486863,0.1546358,-0.2894294,-9.558479,23.6877,23.6877,1000,1000,1,1,,,,
0.0002596274,0.0009124489,-3.73E-05,0.1688942,-0.287675,-9.577919,23.68878,23.68878,1000,1000,1,1,,,,
0.001107315,0.001190655,-4.23E-05,0.1580156,-0.3054752,-9.563774,23.69003,23.69003,1000,1000,1,1,,,,
-1.56E-05,0.0007619609,0.000913624,0.1768656,-0.2837187,-9.564172,23.69154,23.69154,1000,1000,1,1,,,,
0.0001783927,0.00253892,0.0008959143,0.1714396,-0.2993938,-9.590842,23.69296,23.69296,1000,1000,1,1,,,,
-7.54E-05,0.001156731,0.001235651,0.2018701,-0.2926843,-9.589173,23.69436,23.69436,1000,1000,1,1,,,,
-0.0001336892,0.001675599,0.001644596,0.1892089,-0.3046585,-9.591639,23.69552,23.69552,1000,1000,1,1,,,,
-0.0006944035,0.001051384,0.001859903,0.1762154,-0.3160629,-9.591671,23.69637,23.69637,1000,1000,1,1,,,,
-9.13E-05,0.0007935545,0.0005983695,0.1880206,-0.2709096,-9.625092,23.69682,23.69682,1000,1000,1,1,,,,
0.0002890762,0.000528015,0.001014513,0.1843085,-0.2834494,-9.613275,23.69716,23.69716,1000,1000,1,1,,,,
8.48E-05,0.0008195341,-0.0001154172,0.1748325,-0.2923453,-9.569137,23.69751,23.69751,1000,1000,1,1,,,,
-0.0005345584,-9.71E-05,2.48E-05,0.192296,-0.2652838,-9.597497,23.69803,23.69803,1000,1000,1,1,,,,
-0.0006124363,0.0004875019,-0.0005561367,0.1693616,-0.284044,-9.589844,23.6985,23.6985,1000,1000,1,1,,,,
-0.0001616645,0.0003052173,-0.001064167,0.1572509,-0.2820336,-9.587507,23.69894,23.69894,1000,1000,1,1,,,,
-0.0005694377,-0.0005314696,-0.001036704,0.166251,-0.2704471,-9.58044,23.69933,23.69933,1000,1000,1,1,,,,
-0.0009086826,-0.0005753056,-0.0007430251,0.1627507,-0.2773391,-9.580322,23.69996,23.69996,1000,1000,1,1,,,,
-0.0003329786,0.0004291064,-0.0006135943,0.1615372,-0.3013885,-9.611411,23.70047,23.70047,1000,1000,1,1,,,,
0.0002612283,0.0004314909,-0.0005371752,0.1607683,-0.2886166,-9.583111,23.7012,23.7012,1000,1000,1,0,,,,
-0.0003284952,0.0007770566,-0.0002220965,0.1532168,-0.3065999,-9.550389,23.7018,23.7018,1000,1000,1,0,,,,
0.0001304447,-0.0004229898,-0.0002649774,0.1437272,-0.3010511,-9.591919,23.70236,23.70236,1000,1000,1,0,,,,
0.0006673349,0.0008924904,-0.0005428696,0.1538696,-0.2895806,-9.598397,23.70293,23.70293,1000,1000,1,0,,,,
0.0003738056,7.71E-05,0.001039393,0.1880566,-0.3226042,-9.601389,23.70349,23.70349,1000,1000,1,0,,,,
0.001035755,0.0007601093,0.0009135796,0.1433738,-0.2948988,-9.577532,23.704,23.704,1000,1000,1,0,,,,
8.88E-05,0.0004492679,0.0003518961,0.1591628,-0.2903062,-9.582753,23.7044,23.7044,1000,1000,1,0,,,,
5.32E-05,0.0004954513,0.0008971243,0.1857495,-0.3197555,-9.565132,23.70474,23.70474,1000,1000,1,0,,,,
-0.0006451617,0.002086459,0.001307059,0.1705838,-0.3079019,-9.566448,23.70505,23.70505,1000,1000,1,0,,,,
-0.0007824451,0.002223327,0.001000852,0.1732404,-0.2711389,-9.576036,23.70525,23.70525,1000,1000,1,0,,,,
0.0002842381,0.0009669027,0.0006184792,0.1932988,-0.2747802,-9.649191,23.70566,23.70566,1000,1000,1,0,,,,
-0.0007490427,0.00104283,0.0007423061,0.178124,-0.2878902,-9.62408,23.70612,23.70612,1000,1000,1,0,,,,
-0.000488685,-0.0001597919,7.93E-05,0.1823552,-0.268698,-9.606479,23.7066,23.7066,1000,1000,1,0,,,,
-0.0003192147,0.000985638,-0.000217646,0.180582,-0.2834107,-9.612436,23.707,23.707,1000,1000,1,0,,,,
-0.000881849,0.0001856195,-0.0003056203,0.1884739,-0.2669607,-9.603785,23.70743,23.70743,1000,1000,1,0,,,,
-0.0008356965,0.000221856,-0.001182389,0.1747224,-0.2747736,-9.558165,23.70774,23.70774,1000,1000,1,0,,,,
0.0008568882,0.000555568,-0.001520616,0.1677958,-0.273723,-9.539909,23.70833,23.70833,1000,1000,1,0,,,,
-0.0002421065,0.0004051855,-0.0009223653,0.1617194,-0.315896,-9.569832,23.70907,23.70907,1000,1000,1,0,,,,
-6.48E-05,0.001798653,-0.0009345183,0.1700497,-0.2914266,-9.605671,23.70947,23.70947,1000,1000,1,0,,,,
-0.0001109012,0.0006719265,-0.0007338047,0.1548658,-0.2787274,-9.599312,23.71003,23.71003,1000,1000,1,0,,,,
0.0009712984,-0.0006126635,0.0002224263,0.1977104,-0.3048664,-9.63588,23.71067,23.71067,1000,1000,1,0,,,,
0.0004040919,0.0003674223,0.001153318,0.1843367,-0.3312874,-9.618965,23.71164,23.71164,1000,1000,1,0,,,,
6.63E-05,-0.001000235,0.001190096,0.186774,-0.2648217,-9.619867,23.7126,23.7126,1000,1000,1,0,,,,
0.000607649,0.0001850067,0.00174468,0.1605936,-0.2559739,-9.571495,23.71358,23.71358,1000,1000,1,0,,,,
0.0007071819,0.0002581867,0.001087661,0.1612742,-0.2948641,-9.559348,23.71456,23.71456,1000,1000,1,0,,,,
0.0004540875,-0.0003120994,0.000400957,0.178185,-0.2557191,-9.601249,23.71556,23.71556,1000,1000,1,0,,,,
0.001772374,-0.001278147,0.0002609966,0.1533791,-0.2586907,-9.534435,23.71641,23.71641,1000,1000,1,0,,,,
0.001591329,-0.0001604972,-0.0003942903,0.1937964,-0.2817823,-9.525941,23.71717,23.71717,1000,1000,1,0,,,,
-0.0002549952,0.001457476,0.0008565289,0.1668068,-0.3198824,-9.534735,23.71773,23.71773,1000,1000,1,0,,,,
0.0007359796,0.001088738,7.60E-06,0.1792581,-0.2810357,-9.615076,23.71816,23.71816,1000,1000,1,0,,,,
0.0007846083,0.001884349,-9.18E-05,0.1546027,-0.3004862,-9.560698,23.71869,23.71869,1000,1000,1,0,,,,
0.001380898,0.002199044,-0.000220122,0.154,-0.3065473,-9.581153,23.71928,23.71928,1000,1000,1,0,,,,
1.77E-05,0.002350378,0.0003269934,0.1508078,-0.3284715,-9.636287,23.72015,23.72015,1000,1000,1,0,,,,
-0.0004653204,0.001472034,0.0002782127,0.1599667,-0.3060581,-9.647065,23.72129,23.72129,1000,1000,1,0,,,,
-0.001530914,0.0002804921,0.0001254445,0.1484971,-0.2522341,-9.577232,23.72263,23.72263,1000,1000,1,0,,,,
-0.001119976,6.56E-05,-1.11E-05,0.1903862,-0.2539124,-9.627716,23.72421,23.72421,1000,1000,1,0,,,,
0.0002637494,0.0006429114,-0.000128113,0.1677587,-0.3121148,-9.588486,23.72585,23.72585,1000,1000,1,0,,,,
-0.002667211,0.002028786,0.0002833239,0.1622727,-0.2692377,-9.521057,23.72716,23.72716,1000,1000,1,0,,,,
-0.0002335857,0.001377201,0.0002256041,0.1997573,-0.2655019,-9.538071,23.72821,23.72821,1000,1000,1,0,,,,
-0.001499184,0.003003433,-0.0004920329,0.1792092,-0.3091941,-9.56308,23.72887,23.72887,1000,1000,1,0,,,,
0.0002970803,2.06E-06,-0.000334339,0.2014794,-0.2598028,-9.606937,23.72925,23.72925,1000,1000,1,0,,,,
-9.51E-05,0.0006216429,0.0001414401,0.1999626,-0.2955717,-9.588503,23.72962,23.72962,1000,1000,1,0,,,,
0.0006828946,0.0004059639,-0.0002364447,0.193189,-0.2425892,-9.601734,23.73,23.73,1000,1000,1,0,,,,
-0.00100422,0.0006470643,-0.001100728,0.1723313,-0.2855663,-9.65535,23.73025,23.73025,1000,1000,1,0,,,,
0.002077194,-0.0009649688,-0.0001083998,0.1965685,-0.2988885,-9.654343,23.73067,23.73067,1000,1000,1,0,,,,
2.96E-05,-0.0006388649,0.0003245536,0.1442035,-0.3209588,-9.499585,23.73111,23.73111,1000,1000,1,0,,,,
-0.001021866,0.0009512844,0.0011283,0.1775485,-0.3564212,-9.511689,23.73156,23.73156,1000,1000,1,0,,,,
0.000442534,0.001359731,0.001769104,0.1480185,-0.3436093,-9.563668,23.73207,23.73207,1000,1000,1,0,,,,
1.32E-05,0.001236052,0.002495234,0.1628834,-0.3041751,-9.609409,23.73215,23.73215,1000,1000,1,0,,,,
0.0003574276,0.0003223376,0.002300435,0.1290487,-0.264405,-9.565784,23.73204,23.73204,1000,1000,1,0,,,,
-0.0002195292,0.0003876055,0.002215582,0.161648,-0.2601959,-9.604096,23.73213,23.73213,1000,1000,1,0,,,,
-0.001909653,0.000260425,0.001593593,0.1599011,-0.2786014,-9.604544,23.73196,23.73196,1000,1000,1,0,,,,
-0.001666262,0.0007737194,0.001091898,0.1760545,-0.2630659,-9.600809,23.73217,23.73217,1000,1000,1,0,,,,
0.000383701,4.51E-05,0.0005232463,0.1802938,-0.2430916,-9.571906,23.73305,23.73305,1000,1000,1,0,,,,
0.0007204767,0.001523749,7.83E-05,0.1893354,-0.2849835,-9.563988,23.7342,23.7342,1000,1000,1,0,,,,
-0.0001625358,0.0005967261,0.0001002377,0.2189118,-0.3149886,-9.618154,23.73541,23.73541,1000,1000,1,0,,,,
-0.0004273245,0.0006641129,-0.001058686,0.2006045,-0.2200127,-9.564469,23.73662,23.73662,1000,1000,1,0,,,,
0.0007927204,-0.0009295584,-0.00131984,0.1952758,-0.2585845,-9.55805,23.73781,23.73781,1000,1000,1,0,,,,
-0.001245067,0.001047578,-0.001701192,0.1623617,-0.2785682,-9.545714,23.73894,23.73894,1000,1000,1,0,,,,
0.0007036881,0.0006324954,-0.001592017,0.1791292,-0.1967418,-9.63722,23.7399,23.7399,1000,1000,1,0,,,,
0.0007840882,0.000642868,-0.002549087,0.1600671,-0.3101634,-9.584163,23.74081,23.74081,1000,1000,1,0,,,,
0.001088333,0.0008476855,-0.002022709,0.195271,-0.3047121,-9.699472,23.74188,23.74188,1000,1000,1,0,,,,
-0.0006896392,0.0003155336,-0.001030515,0.1332607,-0.3574348,-9.662823,23.74298,23.74298,1000,1000,1,0,,,,
-0.0007700728,-0.001546893,-0.00162219,0.1679097,-0.2872595,-9.610867,23.74396,23.74396,1000,1000,1,0,,,,
0.0005034211,-0.0008642453,-0.0004751456,0.1571084,-0.3538933,-9.519447,23.74503,23.74503,1000,1000,1,0,,,,
-7.58E-05,-0.0009792001,0.0001102842,0.1685605,-0.3371373,-9.547594,23.74616,23.74616,1000,1000,1,0,,,,
-0.0008174987,0.0005805691,0.00147117,0.1671608,-0.2732358,-9.532455,23.74714,23.74714,1000,1000,1,0,,,,
0.0008241985,0.0002932944,0.0007171772,0.1490357,-0.3228159,-9.498216,23.74822,23.74822,1000,1000,1,0,,,,
-0.00157084,0.003325257,0.001498962,0.1821742,-0.2885996,-9.558382,23.74912,23.74912,1000,1000,1,0,,,,
0.0004351203,0.002723486,0.002403905,0.1578609,-0.3063271,-9.589643,23.74994,23.74994,1000,1000,1,0,,,,
-0.001238362,0.002237729,0.002403888,0.1688627,-0.2809453,-9.629789,23.75095,23.75095,1000,1000,1,0,,,,
0.001891566,0.001385274,0.00258052,0.1656375,-0.2486614,-9.660303,23.75195,23.75195,1000,1000,1,0,,,,
0.0008858807,0.0001182553,0.001534552,0.1796839,-0.3045907,-9.640873,23.75309,23.75309,1000,1000,1,0,,,,
0.000291263,5.39E-05,0.0007253976,0.1776701,-0.2517792,-9.666357,23.75407,23.75407,1000,1000,1,0,,,,
0.0009165389,-0.0006167197,0.001404704,0.1828305,-0.2491685,-9.620326,23.755,23.755,1000,1000,1,0,,,,
0.00126341,0.0003505453,0.0001241403,0.1704833,-0.2657573,-9.551583,23.75575,23.75575,1000,1000,1,0,,,,
0.001437229,0.000428235,-0.0002775346,0.2019885,-0.2371985,-9.576823,23.75602,23.75602,1000,1000,1,0,,,,
0.0005033027,0.0001710344,-0.000472379,0.1880883,-0.2792296,-9.554744,23.75588,23.75588,1000,1000,1,0,,,,
0.0003656862,0.0004495546,-0.001844798,0.1907477,-0.2464885,-9.553796,23.75554,23.75554,1000,1000,1,0,,,,
0.0005457512,-0.0001407888,-0.001333768,0.1647231,-0.3211733,-9.554859,23.75513,23.75513,1000,1000,1,0,,,,
-0.001804729,0.0001096028,-0.002597755,0.1585861,-0.310631,-9.61026,23.75478,23.75478,1000,1000,1,0,,,,
-0.001176983,0.0006626424,-0.002025668,0.1521597,-0.2853767,-9.62044,23.75472,23.75472,1000,1000,1,0,,,,
2.50E-05,0.0004416252,-0.002133945,0.1338195,-0.335512,-9.603869,23.75504,23.75504,1000,1000,1,0,,,,
-0.002067818,0.001023093,-0.001580729,0.1470963,-0.2871432,-9.600498,23.75541,23.75541,1000,1000,1,0,,,,
-0.001998302,0.000392773,-0.0008385075,0.1484375,-0.3279667,-9.593561,23.75601,23.75601,1000,1000,1,0,,,,
-0.002483556,8.52E-05,-0.0004235926,0.1646902,-0.2987657,-9.545819,23.75686,23.75686,1000,1000,1,0,,,,
-0.0006524227,0.0001410281,0.000617984,0.1622179,-0.3038206,-9.512713,23.75777,23.75777,1000,1000,1,0,,,,
-0.001642736,0.001457165,0.001644372,0.1753952,-0.3118979,-9.521009,23.75851,23.75851,1000,1000,1,0,,,,
-0.0003301768,0.001925962,0.001357145,0.1899935,-0.275537,-9.568418,23.75943,23.75943,1000,1000,1,0,,,,
4.28E-05,0.002271775,0.0008233601,0.1898665,-0.3167422,-9.579817,23.76037,23.76037,1000,1000,1,0,,,,
-0.0006133778,0.001542949,0.001210879,0.1800861,-0.3139246,-9.583629,23.7614,23.7614,1000,1000,1,0,,,,
0.0007288589,0.000972475,0.001893457,0.2176266,-0.2735614,-9.626343,23.76235,23.76235,1000,1000,1,0,,,,
0.0009896082,0.001179418,0.001580877,0.1957471,-0.2839718,-9.632584,23.76337,23.76337,1000,1000,1,0,,,,
0.002442962,-0.001058287,0.0009999418,0.1920729,-0.26647,-9.618908,23.76449,23.76449,1000,1000,1,0,,,,
0.000913655,-0.0004481028,0.000773244,0.1993295,-0.277517,-9.618748,23.76582,23.76582,1000,1000,1,0,,,,
0.0008002273,-0.0007129118,-2.25E-06,0.1955431,-0.2427127,-9.611381,23.76695,23.76695,1000,1000,1,0,,,,
0.002793539,-0.0008488289,0.0001534923,0.1933986,-0.247478,-9.575548,23.76805,23.76805,1000,1000,1,0,,,,
0.002181428,-0.0001588151,-0.000595483,0.1726532,-0.2870347,-9.551052,23.76869,23.76869,1000,1000,1,0,,,,
0.001283638,-0.0002142204,0.0006000261,0.1664861,-0.2889569,-9.543324,23.76899,23.76899,1000,1000,1,0,,,,
0.0004579819,-0.0001714127,-0.0001188631,0.1592487,-0.3160949,-9.580984,23.7695,23.7695,1000,1000,1,0,,,,
0.0001751679,-7.46E-05,-0.0002741255,0.1584357,-0.3119215,-9.591489,23.77017,23.77017,1000,1000,1,0,,,,
9.83E-05,0.0001434263,-0.000357102,0.1532215,-0.3387912,-9.579693,23.77077,23.77077,1000,1000,1,0,,,,
-0.001566799,0.001144347,-0.0002734319,0.1401052,-0.3208692,-9.577976,23.77132,23.77132,1000,1000,1,0,,,,
-0.0002010058,0.001032574,0.0005215419,0.1376445,-0.2995134,-9.557766,23.77201,23.77201,1000,1000,1,0,,,,
-0.001707731,0.001631281,-6.31E-05,0.1353087,-0.3202294,-9.530786,23.7728,23.7728,1000,1000,1,0,,,,
-0.003519279,0.002332427,-0.0002726461,0.151944,-0.2827181,-9.569643,23.77327,23.77327,1000,1000,1,0,,,,
-0.001600801,0.000918887,0.0005565656,0.1715282,-0.2608504,-9.605236,23.77337,23.77337,1000,1000,1,0,,,,
-0.002023458,0.001175005,0.0004420021,0.2195215,-0.2792255,-9.695299,23.77347,23.77347,1000,1000,1,0,,,,
-0.000482422,-0.001027144,0.0005444875,0.1670654,-0.2620801,-9.622092,23.77348,23.77348,1000,1000,1,0,,,,
-0.0002055743,-0.000531968,0.0001070715,0.2215094,-0.3023537,-9.600457,23.77348,23.77348,1000,1000,1,0,,,,
0.0002245829,0.0003129417,0.0003522155,0.1989419,-0.2866372,-9.562614,23.77348,23.77348,1000,1000,1,0,,,,
0.0003778131,-0.0003688436,0.001125706,0.2170714,-0.2567545,-9.569266,23.77351,23.77351,1000,1000,1,0,,,,
-0.0001947548,0.0003104948,-3.09E-05,0.2211226,-0.2995667,-9.54866,23.77387,23.77387,1000,1000,1,0,,,,
0.001778464,0.001474668,0.0001101032,0.2022666,-0.2837386,-9.558033,23.77484,23.77484,1000,1000,1,0,,,,
0.0009014296,0.0003397249,-0.0003264617,0.1828722,-0.2874334,-9.531206,23.77585,23.77585,1000,1000,1,0,,,,
0.001510953,0.0006979228,-0.0001366095,0.1800924,-0.2910386,-9.600602,23.77658,23.77658,1000,1000,1,0,,,,
0.00134148,-0.0004515874,-8.70E-05,0.1224207,-0.2952312,-9.606887,23.77711,23.77711,1000,1000,1,0,,,,
0.001238818,-0.0001195106,-0.0006258072,0.1323312,-0.2934004,-9.624132,23.77776,23.77776,1000,1000,1,0,,,,
0.001086592,0.0006470245,9.32E-05,0.140483,-0.2935709,-9.607268,23.7785,23.7785,1000,1000,1,0,,,,
0.0005206327,0.0009191867,-0.0005220163,0.1237208,-0.3049774,-9.601965,23.77928,23.77928,1000,1000,1,0,,,,
-8.42E-05,0.0002559124,0.0004530465,0.1459625,-0.2838287,-9.590696,23.78038,23.78038,1000,1000,1,0,,,,
-0.0003850615,0.000281241,-6.73E-05,0.1440776,-0.2798292,-9.581948,23.78161,23.78161,1000,1000,1,0,,,,
-0.00120217,-0.0005238437,2.60E-05,0.1689471,-0.2982856,-9.552738,23.78269,23.78269,1000,1000,1,0,,,,
-0.001719743,0.0008664544,0.00024535,0.1696052,-0.3212861,-9.539248,23.78379,23.78379,1000,1000,1,0,,,,
-0.0008814963,0.0002818653,-0.0003137509,0.1660658,-0.2936589,-9.484591,23.7847,23.7847,1000,1000,1,0,,,,
-0.001316585,0.002013071,-0.0003713671,0.1846685,-0.2933521,-9.547728,23.78557,23.78557,1000,1000,1,0,,,,
-0.001823784,0.002487888,-0.000122899,0.1573646,-0.3005296,-9.559023,23.78653,23.78653,1000,1000,1,0,,,,
-0.00226261,0.002200769,-0.0002180124,0.1889094,-0.2573489,-9.598832,23.78755,23.78755,1000,1000,1,0,,,,
-0.001530841,0.002613136,-0.0003174953,0.1767062,-0.2676718,-9.644843,23.78842,23.78842,1000,1000,1,0,,,,
-0.0007149741,0.001519251,-0.0001708762,0.1906266,-0.2709626,-9.67047,23.7892,23.7892,1000,1000,1,0,,,,
-0.0006362756,-3.69E-05,0.0001129207,0.1992383,-0.2647972,-9.65277,23.78991,23.78991,1000,1000,1,0,,,,
-0.0003034801,2.87E-05,0.0002284125,0.1720771,-0.2897799,-9.584045,23.79056,23.79056,1000,1000,1,0,,,,
0.0003349102,-0.001339746,0.0008903212,0.1936442,-0.2838579,-9.587503,23.79113,23.79113,1000,1000,1,0,,,,
0.0003489295,0.0001271515,0.0005711518,0.1851285,-0.2884044,-9.580403,23.79167,23.79167,1000,1000,1,0,,,,
0.0007950138,0.0001331932,0.0002615834,0.1547908,-0.3001239,-9.601485,23.79254,23.79254,1000,1000,1,0,,,,
0.0005788584,-0.0009640306,0.0007016575,0.1678671,-0.3233303,-9.573003,23.7937,23.7937,1000,1000,1,0,,,,
0.0003682561,-0.001268542,0.0003551792,0.1674346,-0.2960046,-9.560503,23.79511,23.79511,1000,1000,1,0,,,,
0.0005548791,-0.0006156341,-3.89E-05,0.1520979,-0.2899059,-9.511524,23.79665,23.79665,1000,1000,1,0,,,,
0.001140596,0.0004555171,0.0008733062,0.170789,-0.3118515,-9.517134,23.79826,23.79826,1000,1000,1,0,,,,
0.0003754114,0.002496754,0.0003737642,0.1381407,-0.2999343,-9.533642,23.79974,23.79974,1000,1000,1,0,,,,
0.0005207045,0.002005012,0.000940724,0.1488,-0.2807456,-9.559227,23.80099,23.80099,1000,1000,1,0,,,,
1.30E-05,0.002354073,0.001200531,0.137554,-0.3096407,-9.631024,23.80212,23.80212,1000,1000,1,0,,,,
-0.0009130561,0.0008448503,0.001018931,0.139272,-0.2821031,-9.659008,23.80325,23.80325,1000,1000,1,0,,,,
-0.001401892,-0.001277305,0.0004027646,0.1493313,-0.2629382,-9.64817,23.80429,23.80429,1000,1000,1,0,,,,
-0.000628894,-0.0009018062,-0.0004315283,0.1577798,-0.2566801,-9.64459,23.80507,23.80507,1000,1000,1,0,,,,
-0.0007175931,-0.001302961,-0.0004449717,0.1662902,-0.2884814,-9.591111,23.80581,23.80581,1000,1000,1,0,,,,
0.0001334309,-0.0001133817,-0.0001863449,0.1929252,-0.2774045,-9.507095,23.80657,23.80657,1000,1000,1,0,,,,
-0.002186279,0.001376133,-0.001055681,0.1768674,-0.284254,-9.496559,23.80722,23.80722,1000,1000,1,0,,,,
-0.001756612,0.002441288,-0.0006880823,0.1929705,-0.3147105,-9.493412,23.8078,23.8078,1000,1000,1,0,,,,
-0.0006095062,0.003637523,-0.0003892372,0.2067313,-0.2909789,-9.535901,23.8085,23.8085,1000,1000,1,0,,,,
1.73E-05,0.002127916,-0.0005163457,0.1787665,-0.286818,-9.632109,23.80954,23.80954,1000,1000,1,0,,,,
-0.0007316108,0.000743141,-0.0003048966,0.1764074,-0.2926363,-9.666314,23.81058,23.81058,1000,1000,1,0,,,,
-0.0004274834,-0.0001768987,8.27E-05,0.1560142,-0.303178,-9.653085,23.8115,23.8115,1000,1000,1,0,,,,
-0.0001823145,0.0001136324,0.0002448577,0.1611454,-0.3065093,-9.675745,23.81238,23.81238,1000,1000,1,0,,,,
0.0004211467,-0.001505928,0.0001866693,0.1711892,-0.2932354,-9.651758,23.81357,23.81357,1000,1000,1,0,,,,
0.0006458861,-0.001535908,0.0005831277,0.1700431,-0.2862095,-9.622954,23.81471,23.81471,1000,1000,1,0,,,,
0.0004142232,-0.001797528,0.0003128957,0.1833563,-0.3010868,-9.5395,23.81583,23.81583,1000,1000,1,0,,,,
0.0002973479,-0.0008042894,0.001227608,0.1764756,-0.2929519,-9.501325,23.81697,23.81697,1000,1000,1,0,,,,
0.0001788366,0.0001771856,-5.68E-05,0.1800144,-0.286257,-9.484924,23.8181,23.8181,1000,1000,1,0,,,,
0.0003724386,-8.31E-05,0.0004101507,0.1868582,-0.2813535,-9.480645,23.81898,23.81898,1000,1000,1,0,,,,
0.0001153767,0.002460086,0.0007913571,0.1748622,-0.3031142,-9.514716,23.81951,23.81951,1000,1000,1,0,,,,
0.0009280596,0.003781917,0.0003708376,0.1815515,-0.2745394,-9.600803,23.82002,23.82002,1000,1000,1,0,,,,
0.0006099707,0.00271519,-0.0004457543,0.1673971,-0.3058684,-9.664083,23.82059,23.82059,1000,1000,1,0,,,,
7.49E-05,0.001458536,-0.0008642977,0.141687,-0.2984826,-9.704673,23.821,23.821,1000,1000,1,0,,,,
-0.0005459018,-0.0008785822,-0.0006128718,0.1717551,-0.2698052,-9.684066,23.82125,23.82125,1000,1000,1,0,,,,
-0.000336979,-0.002055823,-0.0005200206,0.1678953,-0.2478636,-9.628553,23.82147,23.82147,1000,1000,1,0,,,,
-0.000309717,-0.00242512,-0.0005712403,0.1705825,-0.2703007,-9.563956,23.82136,23.82136,1000,1000,1,0,,,,
-0.0009739495,-0.00111715,-0.0001905694,0.1686777,-0.2841843,-9.51808,23.82142,23.82142,1000,1000,1,0,,,,
-0.0002627023,0.0003335653,-0.0008760368,0.1707345,-0.2853718,-9.469721,23.82122,23.82122,1000,1000,1,0,,,,
-0.001194873,0.00174234,-0.0005741613,0.1661297,-0.2887383,-9.472478,23.82097,23.82097,1000,1000,1,0,,,,
-0.001621053,0.002919484,-0.0005502071,0.1742666,-0.3252686,-9.516766,23.8208,23.8208,1000,1000,1,0,,,,
-0.0001844976,0.002325952,-0.0001157692,0.1836772,-0.3245518,-9.578115,23.82101,23.82101,1000,1000,1,0,,,,
-0.0002060401,0.00198073,0.0007085126,0.1570688,-0.3157576,-9.620836,23.8208,23.8208,1000,1000,1,0,,,,
0.0002568394,0.001184489,-6.59E-05,0.1761257,-0.2956172,-9.652925,23.8209,23.8209,1000,1000,1,0,,,,
4.19E-05,0.0004849829,0.0001328517,0.1434135,-0.284546,-9.667369,23.82084,23.82084,1000,1000,1,0,,,,
0.0003433478,-0.0002383575,0.0006108366,0.1654435,-0.2478811,-9.65072,23.82101,23.82101,1000,1000,1,0,,,,
0.0006839189,1.05E-05,0.0006888846,0.1783205,-0.2374822,-9.614408,23.82126,23.82126,1000,1000,1,0,,,,
0.0009134392,-0.0005194487,0.0008917198,0.1777537,-0.2555573,-9.548935,23.82173,23.82173,1000,1000,1,0,,,,
0.0004910827,-0.00088038,0.0009124885,0.2041979,-0.2751738,-9.540715,23.82249,23.82249,1000,1000,1,0,,,,
0.0006369582,-0.0003078937,0.00068772,0.1932873,-0.2997117,-9.531002,23.82345,23.82345,1000,1000,1,0,,,,
0.0002134603,0.0002570178,0.0006612272,0.1916247,-0.3218044,-9.535969,23.82437,23.82437,1000,1000,1,0,,,,
0.001047672,0.001369438,0.0004062609,0.18783,-0.31854,-9.557558,23.82549,23.82549,1000,1000,1,0,,,,
0.001665644,0.001357419,0.0005256171,0.168792,-0.3339592,-9.591923,23.82635,23.82635,1000,1000,1,0,,,,
5.76E-05,0.001484276,0.0001393578,0.1732554,-0.2950443,-9.597321,23.82712,23.82712,1000,1000,1,0,,,,
5.43E-05,0.00116253,-0.0001601592,0.1451517,-0.280043,-9.609672,23.82783,23.82783,1000,1000,1,0,,,,
-0.0003212731,0.000398524,-0.0001475978,0.1561366,-0.2788044,-9.626229,23.82861,23.82861,1000,1000,1,0,,,,
-0.0003775584,-0.0004947277,-9.81E-05,0.1511029,-0.2605885,-9.628527,23.82956,23.82956,1000,1000,1,0,,,,
-0.0004961141,-0.001007148,-0.0006093762,0.1517559,-0.227652,-9.595407,23.83048,23.83048,1000,1000,1,0,,,,
-0.001156503,-0.0006296384,-0.0008838624,0.1540706,-0.2547008,-9.530359,23.8313,23.8313,1000,1000,1,0,,,,
-0.001466615,-0.0003896296,-0.0007316572,0.1651538,-0.2880518,-9.515523,23.83195,23.83195,1000,1000,1,0,,,,
-0.001156871,0.0007516976,-0.0009800661,0.1919733,-0.288179,-9.551419,23.83272,23.83272,1000,1000,1,0,,,,
-0.0005646887,0.001720951,-0.0008045987,0.1845048,-0.3223679,-9.574186,23.83363,23.83363,1000,1000,1,0,,,,
-0.0007194722,0.001814702,-0.0001624867,0.196359,-0.3210449,-9.558048,23.83461,23.83461,1000,1000,1,0,,,,
-0.0007284824,0.001925982,-0.0006107759,0.17766,-0.3240424,-9.593454,23.83524,23.83524,1000,1000,1,0,,,,
-0.0007002986,0.0007886204,-0.001141943,0.166324,-0.302847,-9.590377,23.83608,23.83608,1000,1000,1,0,,,,
0.0004066039,0.000713488,-0.0006935736,0.1762806,-0.2639045,-9.592594,23.83671,23.83671,1000,1000,1,0,,,,
-8.83E-05,-1.78E-06,0.0001822808,0.1630661,-0.2765603,-9.608677,23.83716,23.83716,1000,1000,1,0,,,,
-0.0006300688,0.0004336507,0.0003092922,0.1619039,-0.2503721,-9.610016,23.83741,23.83741,1000,1000,1,0,,,,
0.0006858983,0.001683746,0.0009112265,0.1780016,-0.2536915,-9.607004,23.83766,23.83766,1000,1000,1,0,,,,
1.15E-05,0.000442773,0.001031816,0.1806099,-0.2840643,-9.594069,23.83748,23.83748,1000,1000,1,0,,,,
0.0003452543,0.0002253913,0.0004807957,0.1939963,-0.2875111,-9.591114,23.83758,23.83758,1000,1000,1,1,,,,
-0.0004691634,-0.0007717827,0.000390295,0.1809171,-0.2864662,-9.57001,23.83768,23.83768,1000,1000,1,1,,,,
-0.0006986415,9.06E-05,0.0007076343,0.1749775,-0.3111705,-9.56218,23.83787,23.83787,1000,1000,1,1,,,,
-0.0005597652,0.001332398,0.0006184272,0.1798515,-0.2936996,-9.567451,23.83817,23.83817,1000,1000,1,1,,,,
-0.000475625,0.001221465,0.0002308248,0.1780971,-0.2997112,-9.561988,23.83878,23.83878,1000,1000,1,1,,,,
-0.000324983,0.002065335,0.0001564412,0.1496893,-0.2748695,-9.59324,23.83945,23.83945,1000,1000,1,1,,,,
2.88E-05,0.001180304,8.05E-05,0.1667808,-0.2687536,-9.60008,23.84011,23.84011,1000,1000,1,1,,,,
-0.0003532119,0.001227059,3.52E-05,0.1565,-0.2727422,-9.595621,23.84096,23.84096,1000,1000,1,1,,,,
-0.0006675695,0.001172825,-0.0003706675,0.163502,-0.2409326,-9.612052,23.84182,23.84182,1000,1000,1,1,,,,
0.0004152063,0.0004314419,9.73E-05,0.1872663,-0.2493157,-9.630964,23.84281,23.84281,1000,1000,1,1,,,,
0.0004070939,0.0008324533,-0.0009113383,0.1622174,-0.2802152,-9.590149,23.84403,23.84403,1000,1000,1,1,,,,
-0.0007375798,0.0004848301,-0.0005703479,0.1783835,-0.2965081,-9.58942,23.84492,23.84492,1000,1000,1,1,,,,
-0.0005123271,0.0005784217,-0.0008210869,0.1816124,-0.2991333,-9.582481,23.846,23.846,1000,1000,1,1,,,,
-0.0004129673,0.0003687618,-0.0008770865,0.185894,-0.3236547,-9.558279,23.84725,23.84725,1000,1000,1,1,,,,
0.0007581966,0.0002802923,-0.0004542234,0.19197,-0.3102821,-9.544519,23.8485,23.8485,1000,1000,1,1,,,,
0.0004904955,0.0003010868,-8.31E-05,0.1720793,-0.3337911,-9.58068,23.84974,23.84974,1000,1000,1,1,,,,
-0.0005135745,0.001524944,0.0008075574,0.1831229,-0.3603346,-9.546841,23.85099,23.85099,1000,1000,1,1,,,,
-9.22E-05,0.002322159,0.000718742,0.1523486,-0.267523,-9.553246,23.85233,23.85233,1000,1000,1,1,,,,
-0.0005187194,0.0001343587,0.001350065,0.1815222,-0.2770392,-9.657045,23.85349,23.85349,1000,1000,1,1,,,,
-0.0004723665,0.0009696708,0.002005478,0.1612249,-0.2808606,-9.623032,23.85477,23.85477,1000,1000,1,1,,,,
0.0005404103,-0.0005887508,0.001573588,0.1704568,-0.2635193,-9.575857,23.85575,23.85575,1000,1000,1,1,,,,
-0.0005434289,0.000305909,0.0008180522,0.2054669,-0.3138085,-9.662579,23.85642,23.85642,1000,1000,1,1,,,,
-0.0008948341,1.40E-05,0.001419627,0.1541988,-0.2470617,-9.589996,23.85691,23.85691,1000,1000,1,1,,,,
0.0001005636,0.0007099715,0.0006261679,0.2054807,-0.2731323,-9.557837,23.85738,23.85738,1000,1000,1,1,,,,
0.002478836,0.00106967,0.0003435744,0.1641203,-0.319282,-9.54973,23.85783,23.85783,1000,1000,1,1,,,,
-0.001206111,-0.0003434835,-0.001371692,0.1443694,-0.1816178,-9.508809,23.85834,23.85834,1000,1000,1,1,,,,
-0.001225984,0.0002107473,-0.001606602,0.2220672,-0.3263715,-9.617844,23.85913,23.85913,1000,1000,1,1,,,,
0.0008638562,0.002830574,-0.001319405,0.1412197,-0.3210862,-9.567961,23.86001,23.86001,1000,1000,1,1,,,,
0.001804698,-0.0004349244,-0.002024847,0.1546756,-0.1591838,-9.57643,23.86081,23.86081,1000,1000,1,1,,,,
0.0006359942,0.002661222,-0.00309812,0.1425894,-0.3277452,-9.576173,23.86169,23.86169,1000,1000,1,1,,,,
0.000257236,0.002090191,-0.002997824,0.1287352,-0.2903066,-9.603573,23.86244,23.86244,1000,1000,1,1,,,,
-0.0018682,0.001904517,-0.001955474,0.1470366,-0.3239084,-9.604339,23.86335,23.86335,1000,1000,1,1,,,,
-0.00266971,0.001736258,-0.001944757,0.1891447,-0.3398291,-9.612209,23.86412,23.86412,1000,1000,1,1,,,,
-0.001057142,0.002032971,-0.000778635,0.1677015,-0.3898621,-9.549641,23.86508,23.86508,1000,1000,1,1,,,,
-0.003162658,0.001660433,-0.0003556976,0.1953969,-0.3836461,-9.572247,23.86606,23.86606,1000,1000,1,1,,,,
-0.003341943,0.001521833,0.0008464912,0.1515516,-0.3542984,-9.513711,23.86705,23.86705,1000,1000,1,1,,,,
-0.003016863,0.001464414,0.001669756,0.2238871,-0.2868896,-9.647015,23.86789,23.86789,1000,1000,1,1,,,,
-0.003020338,0.001431291,0.001782825,0.2062533,-0.2933585,-9.660356,23.86842,23.86842,1000,1000,1,1,,,,
0.0007280015,3.28E-05,0.001828729,0.2428823,-0.1785236,-9.645585,23.8687,23.8687,1000,1000,1,1,,,,
-0.0003349092,-0.0003606646,0.0008965535,0.2446599,-0.1805729,-9.661585,23.86896,23.86896,1000,1000,1,1,,,,
0.001331582,-0.004180219,0.0003112127,0.2582087,-0.2229759,-9.657083,23.86917,23.86917,1000,1000,1,1,,,,
0.002384898,-0.00208143,0.0001991669,0.2310745,-0.3330231,-9.48624,23.86946,23.86946,1000,1000,1,1,,,,
0.002465928,-0.001409837,0.0007384104,0.1765229,-0.3408704,-9.411846,23.87002,23.87002,1000,1000,1,1,,,,
0.0007214869,0.00249532,0.0006791141,0.1179964,-0.3677468,-9.403456,23.87053,23.87053,1000,1000,1,1,,,,
0.002691536,0.005860717,0.001379524,0.08619366,-0.3173459,-9.585919,23.87103,23.87103,1000,1000,1,1,,,,
0.005112325,0.0007235794,0.001898663,0.08609743,-0.241115,-9.777546,23.87183,23.87183,1000,1000,1,1,,,,
0.001879794,-0.001476422,0.001842346,0.07080777,-0.2563674,-9.716767,23.87292,23.87292,1000,1000,1,1,,,,
0.001458796,-0.003965078,0.0002146845,0.0993965,-0.1883704,-9.649984,23.87382,23.87382,1000,1000,1,1,,,,
-0.001113095,-0.002619607,-0.001290582,0.1205377,-0.2799143,-9.586807,23.87451,23.87451,1000,1000,1,1,,,,
-0.0008268716,-0.001621713,-0.00100023,0.1647167,-0.2527459,-9.547915,23.87527,23.87527,1000,1000,1,1,,,,
0.0005835413,0.001132525,-0.0009643722,0.1770104,-0.2922906,-9.385324,23.87604,23.87604,1000,1000,1,1,,,,
-5.26E-05,0.003613091,-0.001905436,0.2329349,-0.3382652,-9.377286,23.87672,23.87672,1000,1000,1,1,,,,
-0.003291457,0.005711377,-0.0008911661,0.2316174,-0.4197081,-9.498287,23.87733,23.87733,1000,1000,1,1,,,,
-0.003851431,0.003014268,-0.0006555111,0.2818635,-0.3562517,-9.633315,23.87809,23.87809,1000,1000,1,1,,,,
-0.003570069,0.0001386638,-0.0003550489,0.2183446,-0.3292389,-9.660272,23.87903,23.87903,1000,1000,1,1,,,,
-0.002654933,0.001148378,-0.0006097046,0.19705,-0.315739,-9.645279,23.88003,23.88003,1000,1000,1,1,,,,
-0.00313373,0.0008428644,0.0005067383,0.2020244,-0.2792339,-9.726708,23.88107,23.88107,1000,1000,1,1,,,,
-0.001847089,-1.67E-05,0.001465482,0.1882959,-0.2530223,-9.730048,23.88213,23.88213,1000,1000,1,1,,,,
-0.002178694,-0.001473241,0.001599206,0.1867658,-0.2120648,-9.697253,23.88304,23.88304,1000,1000,1,1,,,,
-0.001086612,-0.002741613,0.001694842,0.1507651,-0.2156128,-9.593347,23.88399,23.88399,1000,1000,1,1,,,,
-0.0009849152,-0.004226516,0.001265086,0.1678388,-0.2026962,-9.564212,23.8849,23.8849,1000,1000,1,1,,,,
0.001421024,-0.003393665,0.001730432,0.164332,-0.2680509,-9.506318,23.88598,23.88598,1000,1000,1,1,,,,
0.003816066,-0.002133055,0.001339232,0.1558763,-0.2712988,-9.432618,23.88722,23.88722,1000,1000,1,1,,,,
0.003509884,0.0002420853,0.001271503,0.126008,-0.3670597,-9.400026,23.88843,23.88843,1000,1000,1,1,,,,
0.002447411,0.003032053,0.001271834,0.1742893,-0.3148353,-9.564976,23.88933,23.88933,1000,1000,1,1,,,,
0.002966939,0.004127039,0.0003081198,0.1428042,-0.3331651,-9.586435,23.8902,23.8902,1000,1000,1,1,,,,
0.003672079,0.00395611,0.0006745952,0.1303172,-0.2957105,-9.634405,23.8912,23.8912,1000,1000,1,1,,,,
0.001513625,0.003003321,0.0007349577,0.1563416,-0.3067096,-9.662311,23.89194,23.89194,1000,1000,1,1,,,,
0.00183825,0.001144952,0.001023467,0.1299286,-0.2468648,-9.654001,23.89266,23.89266,1000,1000,1,1,,,,
-0.0006421757,0.0003732318,4.66E-06,0.1659216,-0.2363581,-9.682159,23.89343,23.89343,1000,1000,1,1,,,,
0.0009776625,-0.002345466,-0.0004506584,0.1768829,-0.2852188,-9.650522,23.89425,23.89425,1000,1000,1,1,,,,
-0.002756483,-0.0008965376,0.0008091175,0.185712,-0.2826003,-9.58488,23.89518,23.89518,1000,1000,1,1,,,,
-0.001168142,-0.0002604296,0.0009871466,0.229746,-0.3109629,-9.52567,23.89621,23.89621,1000,1000,1,1,,,,
-0.002644926,0.001848387,-0.0001237419,0.2083693,-0.3238246,-9.505152,23.89701,23.89701,1000,1000,1,1,,,,
-0.003224771,0.002442097,-0.0001852567,0.1802588,-0.3377098,-9.522326,23.89759,23.89759,1000,1000,1,1,,,,
-0.0020545,0.001715095,0.0002158634,0.2258524,-0.3133351,-9.610575,23.89831,23.89831,1000,1000,1,1,,,,
-0.001853624,0.001167511,-0.000585683,0.1689343,-0.2839312,-9.554216,23.89891,23.89891,1000,1000,1,1,,,,
-0.001579479,0.0002258865,-0.0008705275,0.1718494,-0.2550132,-9.622933,23.89954,23.89954,1000,1000,1,1,,,,
-0.0007939334,0.0003974614,-0.0008089127,0.1510732,-0.2706004,-9.676935,23.90042,23.90042,1000,1000,1,1,,,,
-0.0003973152,-0.0004143025,-0.0001692718,0.1338796,-0.1969222,-9.647584,23.90115,23.90115,1000,1000,1,1,,,,
0.001118695,0.0005710106,-0.001448681,0.1538372,-0.2220425,-9.601505,23.90173,23.90173,1000,1000,1,1,,,,
0.001580543,-0.00125223,-0.0004523795,0.1715777,-0.2404275,-9.63383,23.90231,23.90231,1000,1000,1,1,,,,
0.002171461,-0.001161782,0.0004761769,0.1698607,-0.276032,-9.593802,23.90306,23.90306,1000,1000,1,1,,,,
0.001912026,-0.001161447,0.001559357,0.1919158,-0.3300742,-9.526481,23.90378,23.90378,1000,1000,1,1,,,,
0.002931416,-0.0009897168,0.001340575,0.1671744,-0.3489494,-9.446151,23.90458,23.90458,1000,1000,1,1,,,,
0.00117573,0.0005523862,0.001604409,0.2027484,-0.4213282,-9.483562,23.9055,23.9055,1000,1000,1,1,,,,
0.0006421011,0.002752102,0.002771086,0.1669529,-0.3808716,-9.490725,23.90669,23.90669,1000,1000,1,1,,,,
0.0007644389,0.003881345,0.003026647,0.1597812,-0.3065488,-9.534799,23.90785,23.90785,1000,1000,1,1,,,,
-0.000700979,0.004896213,0.003307843,0.1511438,-0.329761,-9.58877,23.90873,23.90873,1000,1000,1,1,,,,
-0.000858182,0.003621517,0.002721201,0.1670522,-0.2563311,-9.667372,23.90947,23.90947,1000,1000,1,1,,,,
-0.002715036,0.001993187,0.002132055,0.1576837,-0.2315483,-9.648656,23.91025,23.91025,1000,1000,1,1,,,,
-0.002102548,0.0004232769,0.001270584,0.1709978,-0.1969229,-9.679818,23.9109,23.9109,1000,1000,1,1,,,,
-0.001604877,-0.001114423,0.001162629,0.1722714,-0.2066117,-9.663335,23.91172,23.91172,1000,1000,1,1,,,,
-0.001577387,-0.001691584,9.26E-05,0.1947991,-0.2413145,-9.631276,23.91251,23.91251,1000,1000,1,1,,,,
-0.0006141398,-0.002168244,-0.0006046788,0.2265148,-0.2461095,-9.57321,23.91339,23.91339,1000,1000,1,1,,,,
-0.0002821457,-0.0009236041,-0.002380093,0.1899353,-0.2092158,-9.496442,23.91425,23.91425,1000,1000,1,1,,,,
0.001347192,-0.0008092588,-0.003934983,0.2163664,-0.1785507,-9.583611,23.91528,23.91528,1000,1000,1,1,,,,
0.00455242,-0.002141847,-0.004180627,0.1995351,-0.2475663,-9.59971,23.91645,23.91645,1000,1000,1,1,,,,
0.003850748,-0.0007332046,-0.005138475,0.1666031,-0.2583972,-9.457411,23.91766,23.91766,1000,1000,1,1,,,,
0.003288394,0.001637419,-0.006189582,0.1637012,-0.2689806,-9.504503,23.91891,23.91891,1000,1000,1,1,,,,
0.005833105,0.001357416,-0.004986481,0.1332235,-0.3574191,-9.600736,23.92012,23.92012,1000,1000,1,1,,,,
0.004343181,0.002189595,-0.003939454,0.140933,-0.3206778,-9.636491,23.92147,23.92147,1000,1000,1,1,,,,
0.005403474,0.0006530143,-0.003325956,0.09853871,-0.3462301,-9.551232,23.92294,23.92294,1000,1000,1,1,,,,
0.001285103,0.001758605,-0.001698861,0.1408152,-0.4017777,-9.611042,23.92424,23.92424,1000,1000,1,1,,,,
0.0008960413,8.55E-05,0.0001155682,0.1632724,-0.3879715,-9.667221,23.92514,23.92514,1000,1000,1,1,,,,
-0.001198712,-0.001989329,0.001817328,0.1410428,-0.4116648,-9.57979,23.92568,23.92568,1000,1000,1,1,,,,
-0.0007441354,-0.000447688,0.003054281,0.1572523,-0.3556299,-9.489647,23.92618,23.92618,1000,1000,1,1,,,,
-0.00217282,0.001778905,0.003621032,0.1848429,-0.3810396,-9.542622,23.92668,23.92668,1000,1000,1,1,,,,
-0.003019093,0.000996294,0.005029344,0.2272616,-0.3636507,-9.552865,23.92717,23.92717,1000,1000,1,1,,,,
-0.004637344,0.00153286,0.005430604,0.2078502,-0.2775246,-9.536099,23.92764,23.92764,1000,1000,1,1,,,,
-0.004106272,0.002497499,0.004723636,0.188141,-0.2741928,-9.525343,23.92819,23.92819,1000,1000,1,1,,,,
-0.003323513,0.004294696,0.003566933,0.1978108,-0.2088905,-9.619167,23.92894,23.92894,1000,1000,1,1,,,,
-0.0003268229,0.001946301,0.003463612,0.195539,-0.2151443,-9.685424,23.92982,23.92982,1000,1000,1,1,,,,
-0.0007635753,-0.0003619114,0.001158666,0.2027165,-0.1651483,-9.66043,23.9305,23.9305,1000,1000,1,1,,,,
0.0007825677,-0.001038168,-0.0003091484,0.1751203,-0.1787205,-9.632757,23.93114,23.93114,1000,1000,1,1,,,,
0.001098722,-0.001389436,-0.00148239,0.1851712,-0.2051341,-9.67694,23.93158,23.93158,1000,1000,1,1,,,,
0.003045519,-0.002002222,-0.001731451,0.1795177,-0.1972143,-9.617908,23.93182,23.93182,1000,1000,1,1,,,,
0.004630446,-0.002521322,-0.002927651,0.1728593,-0.2522612,-9.524578,23.93217,23.93217,1000,1000,1,1,,,,
0.003294491,0.0003469126,-0.003336812,0.1570143,-0.2804861,-9.509426,23.93254,23.93254,1000,1000,1,1,,,,
0.002670917,-0.000701428,-0.003311617,0.1719155,-0.3173225,-9.579607,23.93287,23.93287,1000,1000,1,1,,,,
0.002080824,-0.0004736241,-0.002796434,0.1566172,-0.3542696,-9.526572,23.93319,23.93319,1000,1000,1,1,,,,
0.0007154251,0.001121873,-0.003208163,0.1363401,-0.3517755,-9.488803,23.93297,23.93297,1000,1000,1,1,,,,
-9.63E-05,0.001811925,-0.002624774,0.1322945,-0.3851931,-9.540676,23.93286,23.93286,1000,1000,1,1,,,,
-0.001850019,0.002659022,-0.001238133,0.1422467,-0.3717624,-9.605674,23.93266,23.93266,1000,1000,1,1,,,,
-0.002259127,0.0006687086,-3.66E-05,0.1689997,-0.3528011,-9.630468,23.9325,23.9325,1000,1000,1,1,,,,
-0.004343496,0.001260941,0.0008034314,0.1538075,-0.3709866,-9.588184,23.93249,23.93249,1000,1000,1,1,,,,
-0.005754523,0.001361855,0.0008194204,0.1772889,-0.3018847,-9.629945,23.93237,23.93237,1000,1000,1,1,,,,
-0.005120928,6.33E-05,0.002114702,0.1800221,-0.3088142,-9.640822,23.93237,23.93237,1000,1000,1,1,,,,
-0.003773224,-0.0003293706,0.003743364,0.1958249,-0.2600821,-9.537702,23.93237,23.93237,1000,1000,1,1,,,,
-0.002586076,0.0004809178,0.002468467,0.2067792,-0.2692128,-9.549952,23.93237,23.93237,1000,1000,1,1,,,,
-0.003290919,0.001614415,0.002180296,0.2020072,-0.2692349,-9.591069,23.93237,23.93237,1000,1000,1,1,,,,
-0.001966383,0.001548836,0.002548286,0.2191907,-0.2315885,-9.586918,23.93237,23.93237,1000,1000,1,1,,,,
0.0002891235,0.0005341925,0.001967586,0.1952223,-0.214497,-9.541983,23.93237,23.93237,1000,1000,1,1,,,,
0.001415983,0.001137464,0.0007013752,0.1855441,-0.2080216,-9.586647,23.9323,23.9323,1000,1000,1,1,,,,
0.003519091,0.0006324801,-0.0001161695,0.1812305,-0.1998693,-9.661589,23.9322,23.9322,1000,1000,1,1,,,,
0.00399528,-0.001091823,-0.001301561,0.1899065,-0.21874,-9.643835,23.93215,23.93215,1000,1000,1,1,,,,
0.005645336,-0.0003121189,-0.001609768,0.1616089,-0.2456823,-9.581545,23.93215,23.93215,1000,1000,1,1,,,,
0.005080746,-6.87E-05,-0.001629553,0.1696916,-0.2815678,-9.608507,23.93233,23.93233,1000,1000,1,1,,,,
0.004526999,-0.0009294028,-0.001630585,0.159135,-0.2869129,-9.641726,23.93264,23.93264,1000,1000,1,1,,,,
0.004439807,-0.001457845,-0.001872025,0.1643367,-0.3251543,-9.571939,23.93284,23.93284,1000,1000,1,1,,,,
0.002720269,4.90E-05,-0.00145271,0.169016,-0.3776073,-9.496241,23.93326,23.93326,1000,1000,1,1,,,,
0.0007016259,3.03E-05,-0.0006658045,0.1448818,-0.3685451,-9.528482,23.93369,23.93369,1000,1000,1,1,,,,
-0.0006526008,0.0006536205,-0.0002361895,0.162481,-0.3699676,-9.587223,23.93437,23.93437,1000,1000,1,1,,,,
-0.002346751,0.000634605,0.0005813637,0.1571451,-0.363541,-9.521618,23.93521,23.93521,1000,1000,1,1,,,,
-0.003512308,0.001594727,0.0009315105,0.1329267,-0.3513039,-9.513786,23.93607,23.93607,1000,1000,1,1,,,,
-0.00410348,0.002028194,0.0007816978,0.1763059,-0.3146577,-9.605903,23.93718,23.93718,1000,1000,1,1,,,,
-0.004457786,0.002325324,0.001614163,0.1763708,-0.2846482,-9.629428,23.93842,23.93842,1000,1000,1,1,,,,
-0.004058435,0.0011813,0.001553869,0.1718437,-0.2660089,-9.615833,23.93968,23.93968,1000,1000,1,1,,,,
-0.004304559,0.0009752335,0.0009681092,0.1659956,-0.253554,-9.581947,23.941,23.941,1000,1000,1,1,,,,
-0.002741039,0.001044851,0.00184915,0.1960575,-0.2256854,-9.619768,23.94247,23.94247,1000,1000,1,1,,,,
-0.001330754,-0.0004216092,0.0006952065,0.2028842,-0.2115786,-9.602606,23.9439,23.9439,1000,1000,1,1,,,,
-0.0003239002,-9.70E-05,0.001217048,0.1915211,-0.2367631,-9.559343,23.94532,23.94532,1000,1000,1,1,,,,
0.0003005799,0.0004789114,0.0002437741,0.1798711,-0.2438843,-9.575705,23.94654,23.94654,1000,1000,1,1,,,,
0.001771221,0.0006656175,-0.0005111907,0.2139896,-0.2410673,-9.580307,23.94763,23.94763,1000,1000,1,1,,,,
0.003637108,0.0002978861,-0.0007099477,0.2026303,-0.2622787,-9.566173,23.94893,23.94893,1000,1000,1,1,,,,
0.004277038,0.0004153147,-0.002056478,0.1761002,-0.2691272,-9.549002,23.95006,23.95006,1000,1000,1,1,,,,
0.004583033,0.001304492,-0.001634078,0.1762813,-0.2726117,-9.626543,23.95104,23.95104,1000,1000,1,1,,,,
0.003626768,-0.0003133836,-0.001113357,0.1697685,-0.2862446,-9.637352,23.952,23.952,1000,1000,1,1,,,,
0.004026897,-4.33E-05,-0.001535855,0.159053,-0.2980358,-9.595826,23.95281,23.95281,1000,1000,1,1,,,,
0.001960551,0.0007264389,-0.0002606311,0.1433199,-0.3325332,-9.554764,23.95341,23.95341,1000,1000,1,1,,,,
0.0007823925,-0.0003075005,0.0003302154,0.172715,-0.326011,-9.584724,23.95383,23.95383,1000,1000,1,1,,,,
0.001034648,-2.16E-05,0.0005885327,0.1496025,-0.3468336,-9.599059,23.95409,23.95409,1000,1000,1,1,,,,
-0.001627777,0.0002432381,0.001050483,0.1479694,-0.3677371,-9.560526,23.95473,23.95473,1000,1000,1,1,,,,
-0.002842772,0.0004730239,0.001583312,0.1671163,-0.3456275,-9.556484,23.95532,23.95532,1000,1000,1,1,,,,
-0.002744062,0.001555545,0.0008472414,0.1668839,-0.3255866,-9.565479,23.95607,23.95607,1000,1000,1,1,,,,
-0.002448816,0.001052681,0.001054927,0.16118,-0.286478,-9.572448,23.95699,23.95699,1000,1000,1,1,,,,
-0.002014583,0.001357977,0.001621818,0.1644236,-0.286694,-9.528696,23.95831,23.95831,1000,1000,1,1,,,,
-0.003472312,0.00188196,0.0009326213,0.1679772,-0.2532999,-9.587604,23.95944,23.95944,1000,1000,1,1,,,,
-0.003647513,0.0008325047,0.001093507,0.1691573,-0.2383853,-9.623173,23.9605,23.9605,1000,1000,1,1,,,,
-0.001355533,0.0002731611,0.0006145052,0.1762258,-0.2458806,-9.624837,23.96152,23.96152,1000,1000,1,1,,,,
-0.0003575403,0.001162749,0.0003658003,0.168377,-0.2356108,-9.563732,23.96254,23.96254,1000,1000,1,1,,,,
6.93E-06,0.0001629883,-0.0008727795,0.191617,-0.2327332,-9.602406,23.96367,23.96367,1000,1000,1,1,,,,
0.001130716,0.0003177936,-0.001204038,0.1733169,-0.2580368,-9.600388,23.96469,23.96469,1000,1000,1,1,,,,
0.001793359,-0.001451125,-0.001410415,0.1840361,-0.268432,-9.58313,23.96562,23.96562,1000,1000,1,1,,,,
0.002656401,-0.0002041644,-0.0008389077,0.1591509,-0.3002402,-9.54557,23.96614,23.96614,1000,1000,1,1,,,,
0.002303841,0.0009068546,-0.001729767,0.1711,-0.3118342,-9.571671,23.96664,23.96664,1000,1000,1,1,,,,
0.002473439,-0.0007472833,-0.0009397007,0.183762,-0.3006867,-9.58813,23.96728,23.96728,1000,1000,1,1,,,,
0.001945495,-0.0001208331,-0.0009127917,0.1825534,-0.3205813,-9.551673,23.96782,23.96782,1000,1000,1,1,,,,
0.001607661,0.0007545269,-0.0006954891,0.1746323,-0.3169947,-9.601073,23.96836,23.96836,1000,1000,1,1,,,,
-0.0004270496,0.001093542,6.30E-05,0.1599211,-0.3289071,-9.604904,23.96899,23.96899,1000,1000,1,1,,,,
-0.001043052,0.0001253564,0.0008666003,0.1716627,-0.3300761,-9.585944,23.9697,23.9697,1000,1000,1,1,,,,
-0.001062894,-0.000585306,0.0006613555,0.1594067,-0.3246651,-9.571041,23.97065,23.97065,1000,1000,1,1,,,,
-0.002491003,0.0003709411,0.001070092,0.1546033,-0.320254,-9.552639,23.97141,23.97141,1000,1000,1,1,,,,
-0.002360612,0.000432579,0.001595729,0.1650004,-0.3292385,-9.607016,23.97219,23.97219,1000,1000,1,1,,,,
-0.003151906,0.001137439,0.00200141,0.1605806,-0.2961957,-9.543316,23.97293,23.97293,1000,1000,1,1,,,,
-0.003199311,0.0007622924,0.0005572554,0.1542489,-0.274049,-9.564679,23.97393,23.97393,1000,1000,1,1,,,,
-0.00282935,0.001804193,0.001383542,0.1668965,-0.2545298,-9.567536,23.97503,23.97503,1000,1000,1,1,,,,
-0.001910572,0.0008202641,0.0004167248,0.1575861,-0.2399743,-9.577614,23.97598,23.97598,1000,1000,1,1,,,,
-0.001043803,0.0004494657,-0.0004246468,0.1570257,-0.2162181,-9.590261,23.97713,23.97713,1000,1000,1,1,,,,
-0.0002988046,0.001120976,-0.001804209,0.1487844,-0.14437,-9.467914,23.97836,23.97836,1000,1000,1,1,,,,
0.001380864,0.002787157,-0.003778783,0.1782079,-0.1520665,-9.570822,23.97955,23.97955,1000,1000,1,1,,,,
0.003119416,0.002779652,-0.00486868,0.1625855,-0.2254008,-9.650484,23.98062,23.98062,1000,1000,1,1,,,,
0.004102689,0.001917949,-0.005079423,0.1651305,-0.2262097,-9.623216,23.98168,23.98168,1000,1000,1,1,,,,
0.006485502,9.69E-05,-0.006111683,0.1905129,-0.3015124,-9.590934,23.98265,23.98265,1000,1000,1,1,,,,
0.005148648,0.0002586182,-0.005562393,0.220123,-0.3419771,-9.687332,23.98374,23.98374,1000,1000,1,1,,,,
0.006036371,-0.002104905,-0.004416483,0.2042383,-0.3458887,-9.676897,23.98469,23.98469,1000,1000,1,1,,,,
0.008011574,-0.003673524,-0.003599836,0.246414,-0.2453009,-9.639904,23.98552,23.98552,1000,1000,1,1,,,,
0.008545134,-0.002553852,-0.003591689,0.1870578,-0.2618172,-9.524078,23.98634,23.98634,1000,1000,1,1,,,,
0.006825695,-0.001876806,-0.003311435,0.189465,-0.2615865,-9.549591,23.98707,23.98707,1000,1000,1,1,,,,
0.005963479,-0.0007453703,-0.00313011,0.1563596,-0.2841364,-9.550534,23.98761,23.98761,1000,1000,1,1,,,,
0.006765062,-0.001683653,-0.003184993,0.1472495,-0.2745945,-9.546778,23.98829,23.98829,1000,1000,1,1,,,,
0.005406516,-0.0008884139,-0.003900101,0.1603772,-0.3634214,-9.520882,23.98895,23.98895,1000,1000,1,1,,,,
0.003181036,-0.0002220373,-0.002841912,0.1540911,-0.4188589,-9.556341,23.98965,23.98965,1000,1000,1,1,,,,
0.002512122,0.000563826,-0.001345157,0.141769,-0.4147265,-9.576815,23.99047,23.99047,1000,1000,1,1,,,,
0.001151197,0.0001165636,-0.002056898,0.1827911,-0.3742457,-9.639986,23.99125,23.99125,1000,1000,1,1,,,,
0.0005801825,-0.001394811,-0.001833858,0.1296735,-0.4449085,-9.533188,23.9919,23.9919,1000,1000,1,1,,,,
-0.002013116,-0.0002416228,-0.0009185901,0.1913687,-0.4042815,-9.572474,23.99274,23.99274,1000,1000,1,1,,,,
-0.003956149,0.0001739108,-0.0003535817,0.1406564,-0.3344691,-9.537828,23.9936,23.9936,1000,1000,1,1,,,,
-0.002833455,-0.001008637,0.0002626258,0.158269,-0.2967832,-9.580085,23.99444,23.99444,1000,1000,1,1,,,,
-0.006351143,0.001190345,0.0002908896,0.1264791,-0.3510242,-9.474076,23.9951,23.9951,1000,1000,1,1,,,,
-0.006316483,0.002257077,0.001838425,0.1476341,-0.2941423,-9.484244,23.99577,23.99577,1000,1000,1,1,,,,
-0.007623388,0.004961056,0.001263966,0.1341745,-0.298693,-9.425325,23.99643,23.99643,1000,1000,1,1,,,,
-0.007625858,0.007105624,0.001645676,0.1192723,-0.3369361,-9.435181,23.99675,23.99675,1000,1000,1,1,,,,
-0.008919356,0.009493286,0.001998238,0.120318,-0.3724344,-9.451921,23.99719,23.99719,1000,1000,1,1,,,,
-0.0100821,0.01116238,0.003997676,0.1360725,-0.3669661,-9.533467,23.99775,23.99775,1000,1000,1,1,,,,
-0.009518877,0.01006425,0.003804735,0.1528398,-0.3806608,-9.633035,23.99829,23.99829,1000,1000,1,1,,,,
-0.008217655,0.008612627,0.003947005,0.1379158,-0.3683022,-9.607476,23.99875,23.99875,1000,1000,1,1,,,,
-0.01109315,0.008360113,0.005455422,0.1693508,-0.4083129,-9.720572,23.99921,23.99921,1000,1000,1,1,,,,
-0.009991886,0.007195232,0.006604441,0.2389836,-0.2559224,-9.894452,23.99963,23.99963,1000,1000,1,1,,,,
-0.003043178,-0.0006886672,0.006010377,0.2723515,-0.1335736,-9.987841,23.99996,23.99996,1000,1000,1,1,,,,
-0.003604317,-0.005805036,0.006435324,0.301173,-0.209317,-9.853909,24.00026,24.00026,1000,1000,1,1,,,,
-0.003798382,-0.008977662,0.006888606,0.3256824,-0.1235286,-9.685728,24.00069,24.00069,1000,1000,1,1,,,,
-0.0008660308,-0.01039018,0.005821915,0.4014475,-0.1598915,-9.704586,24.00124,24.00124,1000,1000,1,1,,,,
0.002873068,-0.01207155,0.005176775,0.374275,-0.1496938,-9.602139,24.00191,24.00191,1000,1000,1,1,,,,
0.007546729,-0.01057042,0.004986592,0.3239868,-0.179516,-9.364233,24.00248,24.00248,1000,1000,1,1,,,,
0.007230168,-0.00584308,0.00280629,0.2501046,-0.2253743,-9.250289,24.00251,24.00251,1000,1000,1,1,,,,
0.007329929,-0.001785706,0.001630195,0.2140778,-0.2014227,-9.383707,24.00264,24.00264,1000,1000,1,1,,,,
0.008145103,-0.001963814,-0.000366857,0.1533788,-0.3154831,-9.46542,24.00289,24.00289,1000,1000,1,1,,,,
0.00749071,0.0006131988,0.0006010121,0.04705673,-0.3590677,-9.446676,24.00333,24.00333,1000,1000,1,1,,,,
0.00754556,0.002937963,0.000159815,-0.03693663,-0.3020316,-9.56329,24.00375,24.00375,1000,1000,1,1,,,,
0.006784633,0.00187228,-0.0004456984,-0.04038049,-0.3150023,-9.761195,24.00404,24.00404,1000,1000,1,1,,,,
0.006314541,-0.001140552,-0.0007261618,-0.05208451,-0.3340822,-9.764712,24.0047,24.0047,1000,1000,1,1,,,,
0.001450936,-0.001833084,-0.0009702495,-0.06094704,-0.3595051,-9.614612,24.00547,24.00547,1000,1000,1,1,,,,
-0.001939673,-0.001799497,-0.0003344287,0.01270112,-0.2988803,-9.544554,24.00612,24.00612,1000,1000,1,1,,,,
-0.002909319,0.0003110876,-0.0004388703,0.09368452,-0.2902218,-9.539306,24.00674,24.00674,1000,1000,1,1,,,,
-0.003848002,0.001120872,-0.0005667792,0.1338772,-0.3672526,-9.388806,24.00721,24.00721,1000,1000,1,1,,,,
-0.007248113,0.005571065,-0.0007008468,0.1799943,-0.3408615,-9.29626,24.00763,24.00763,1000,1000,1,1,,,,
-0.01021447,0.007745354,-0.001201814,0.2440635,-0.3390054,-9.39172,24.00812,24.00812,1000,1000,1,1,,,,
-0.01155564,0.008141306,-0.002144586,0.3033427,-0.3392773,-9.562923,24.00885,24.00885,1000,1000,1,1,,,,
-0.0101652,0.007921763,-0.002095619,0.305057,-0.3156978,-9.613335,24.00959,24.00959,1000,1000,1,1,,,,
-0.008092033,0.007471565,-0.002250451,0.2991813,-0.2567568,-9.682623,24.01016,24.01016,1000,1000,1,1,,,,
-0.004463314,0.005398623,-0.002692755,0.3047194,-0.1979002,-9.84132,24.01049,24.01049,1000,1000,1,1,,,,
-0.001751948,3.51E-06,-0.002884975,0.2937631,-0.2137247,-9.934841,24.01069,24.01069,1000,1000,1,1,,,,
-0.001374516,-0.004276317,-0.002847185,0.2353242,-0.1370818,-9.756069,24.01091,24.01091,1000,1000,1,1,,,,
0.0003887047,-0.005928218,-0.00263147,0.2234839,-0.1162073,-9.652044,24.0106,24.0106,1000,1000,1,1,,,,
0.004346492,-0.005073551,-0.002153553,0.2152902,-0.2054831,-9.641262,24.01034,24.01034,1000,1000,1,1,,,,
0.007282455,-0.005777227,-0.001209182,0.1962864,-0.2754874,-9.558541,24.01017,24.01017,1000,1000,1,1,,,,
0.007846721,-0.005457784,-0.0004409506,0.1710551,-0.3591412,-9.421062,24.01039,24.01039,1000,1000,1,1,,,,
0.007603328,-0.002679744,0.0004433294,0.1473982,-0.373083,-9.421327,24.01012,24.01012,1000,1000,1,1,,,,
0.006329509,-0.000901426,0.001328984,0.125926,-0.420048,-9.458155,24.01011,24.01011,1000,1000,1,1,,,,
0.006840218,0.001092106,0.001744814,0.1204202,-0.4112319,-9.472723,24.01011,24.01011,1000,1000,1,1,,,,
0.006331384,0.0030302,0.003556562,0.1168883,-0.3998887,-9.473108,24.00999,24.00999,1000,1000,1,1,,,,
0.004657053,0.00453398,0.003761185,0.08516891,-0.3701645,-9.59298,24.00985,24.00985,1000,1000,1,1,,,,
0.001939199,0.002603868,0.00334277,0.09703346,-0.3283352,-9.669203,24.00992,24.00992,1000,1000,1,1,,,,
-0.0007917574,0.001906114,0.003936688,0.09507517,-0.3188381,-9.629276,24.01038,24.01038,1000,1000,1,1,,,,
-0.004200481,0.0008201597,0.004322208,0.104485,-0.2721471,-9.576847,24.01093,24.01093,1000,1000,1,1,,,,
-0.005407442,0.001543719,0.003042176,0.1381834,-0.25389,-9.600176,24.01161,24.01161,1000,1000,1,1,,,,
-0.005346083,0.001908552,0.003133854,0.1827109,-0.2846411,-9.619756,24.01241,24.01241,1000,1000,1,1,,,,
-0.006842351,0.001313542,0.002574333,0.1862284,-0.2764657,-9.546364,24.0133,24.0133,1000,1000,1,1,,,,
-0.008144381,0.002994153,8.03E-05,0.2217678,-0.2586129,-9.493258,24.01445,24.01445,1000,1000,1,1,,,,
-0.007768389,0.002975641,-0.0007216901,0.2275823,-0.2772445,-9.564267,24.01557,24.01557,1000,1000,1,1,,,,
-0.005865891,0.0015815,-0.001666009,0.2487796,-0.2484859,-9.594854,24.01669,24.01669,1000,1000,1,1,,,,
-0.00425342,0.0007465788,-0.002520852,0.2321151,-0.2320718,-9.559088,24.01737,24.01737,1000,1000,1,1,,,,
-0.0009788042,0.00154697,-0.004197065,0.2098613,-0.1803962,-9.593881,24.01815,24.01815,1000,1000,1,1,,,,
0.0005565212,0.0007585138,-0.004632503,0.2107035,-0.1906707,-9.681323,24.01894,24.01894,1000,1000,1,1,,,,
0.0007311685,-0.00048661,-0.003529533,0.2012139,-0.22305,-9.663033,24.01989,24.01989,1000,1000,1,1,,,,
0.003066257,-0.001518279,-0.003334524,0.1763419,-0.2162945,-9.632651,24.02079,24.02079,1000,1000,1,1,,,,
0.004683313,-0.001008417,-0.003517436,0.1710041,-0.2620883,-9.57814,24.0214,24.0214,1000,1000,1,1,,,,
0.00609096,-0.00132473,-0.002132526,0.1701625,-0.3233203,-9.628447,24.02202,24.02202,1000,1000,1,1,,,,
0.005347823,-0.002775991,-0.0002654223,0.139985,-0.3534145,-9.540278,24.02263,24.02263,1000,1000,1,1,,,,
0.005091118,-0.001354572,0.0001222868,0.128107,-0.3845105,-9.468372,24.02349,24.02349,1000,1000,1,1,,,,
0.004674161,0.0009122907,0.0007455055,0.1617038,-0.4027769,-9.50877,24.02449,24.02449,1000,1000,1,1,,,,
0.003139811,0.002286881,0.002461098,0.1636388,-0.3951747,-9.551075,24.02547,24.02547,1000,1000,1,1,,,,
0.003218425,0.002001022,0.003127334,0.1749191,-0.361148,-9.572127,24.02623,24.02623,1000,1000,1,1,,,,
0.00114871,0.002702491,0.00343153,0.1516421,-0.3536241,-9.578982,24.02689,24.02689,1000,1000,1,1,,,,
-0.001767251,0.001392846,0.003662224,0.1444715,-0.3364189,-9.647981,24.02748,24.02748,1000,1000,1,1,,,,
-0.00310021,0.0006340141,0.003629067,0.1774478,-0.2733608,-9.643888,24.02785,24.02785,1000,1000,1,1,,,,
-0.004911496,9.62E-05,0.003691682,0.146499,-0.2510676,-9.597685,24.02825,24.02825,1000,1000,1,1,,,,
-0.004493253,0.0005703756,0.00320673,0.1645303,-0.2473329,-9.595991,24.02871,24.02871,1000,1000,1,1,,,,
-0.003665184,0.001163992,0.00207809,0.193171,-0.2396739,-9.612122,24.02921,24.02921,1000,1000,1,1,,,,
-0.003762358,3.35E-05,0.001397534,0.1667914,-0.2133056,-9.560844,24.02968,24.02968,1000,1000,1,1,,,,
-0.003957761,-0.0002599904,0.000830586,0.1835263,-0.2306685,-9.534231,24.03041,24.03041,1000,1000,1,1,,,,
-0.003004514,0.0003894161,-0.0005347324,0.1796786,-0.2449169,-9.527561,24.03139,24.03139,1000,1000,1,1,,,,
-0.001721926,0.001211895,-0.001368609,0.1845684,-0.2222285,-9.54225,24.03264,24.03264,1000,1000,1,1,,,,
0.0004466496,0.001396728,-0.002799557,0.1799004,-0.2408295,-9.541991,24.0337,24.0337,1000,1000,1,1,,,,
0.002075642,0.001335606,-0.002895656,0.1828644,-0.2434806,-9.542667,24.03478,24.03478,1000,1000,1,1,,,,
0.002485253,0.0013787,-0.00265504,0.1621442,-0.2687904,-9.599014,24.03585,24.03585,1000,1000,1,1,,,,
0.002335542,0.001682089,-0.003522519,0.1737087,-0.259286,-9.663251,24.03682,24.03682,1000,1000,1,1,,,,
0.003361464,0.0004030792,-0.002648687,0.1615077,-0.2839353,-9.632989,24.03769,24.03769,1000,1000,1,1,,,,
0.003929081,0.0003105299,-0.002106405,0.1528607,-0.314874,-9.628028,24.0382,24.0382,1000,1000,1,1,,,,
0.002582216,-0.0002544268,-0.000735583,0.1819252,-0.3374739,-9.636974,24.03844,24.03844,1000,1000,1,1,,,,
0.002055238,-0.001133442,0.0005436377,0.194415,-0.3444822,-9.609191,24.0387,24.0387,1000,1000,1,1,,,,
0.0009761923,-0.0004926746,0.0002359378,0.1869065,-0.3720911,-9.559362,24.03852,24.03852,1000,1000,1,1,,,,
-0.0006698795,8.31E-05,0.001293812,0.1844555,-0.3738628,-9.538124,24.03859,24.03859,1000,1000,1,1,,,,
-0.001210216,0.0005408122,0.002412119,0.1915453,-0.3499703,-9.551294,24.03893,24.03893,1000,1000,1,1,,,,
-0.001424114,0.001364569,0.003213127,0.1792635,-0.3180618,-9.543556,24.03949,24.03949,1000,1000,1,1,,,,
-0.001529454,0.00127135,0.003118323,0.1627009,-0.3070633,-9.557034,24.0401,24.0401,1000,1000,1,1,,,,
-0.003103787,0.001670016,0.002732618,0.1667779,-0.2826418,-9.599909,24.04089,24.04089,1000,1000,1,1,,,,
-0.00371908,0.001552523,0.002973431,0.1673093,-0.2286798,-9.616633,24.04181,24.04181,1000,1000,1,1,,,,
-0.002453039,0.001082943,0.003153753,0.1508953,-0.2269256,-9.613288,24.04271,24.04271,1000,1000,1,1,,,,
-0.001468168,0.0001142451,0.001726201,0.1625718,-0.2308568,-9.599495,24.04362,24.04362,1000,1000,1,1,,,,
-0.000721965,0.0003271867,0.0007056373,0.1575609,-0.2262847,-9.617868,24.04457,24.04457,1000,1000,1,1,,,,
0.0004608394,0.0005544694,4.91E-05,0.1769452,-0.2216038,-9.599816,24.04564,24.04564,1000,1000,1,1,,,,
0.0006650122,0.0002055449,-0.0005514404,0.1437581,-0.2422813,-9.558319,24.04668,24.04668,1000,1000,1,1,,,,
0.001058525,-0.0006855449,-0.001561017,0.1611683,-0.2645645,-9.545588,24.04763,24.04763,1000,1000,1,1,,,,
0.002591083,0.001109965,-0.001697657,0.1695616,-0.2822079,-9.556509,24.0484,24.0484,1000,1000,1,1,,,,
0.002658715,0.001530862,-0.002859319,0.1604403,-0.2784999,-9.567871,24.04882,24.04882,1000,1000,1,1,,,,
0.002628843,0.0008077988,-0.002212402,0.1721439,-0.3074824,-9.547864,24.04917,24.04917,1000,1000,1,1,,,,
0.0009666458,0.001254126,-0.002843556,0.1797481,-0.3120697,-9.57482,24.04957,24.04957,1000,1000,1,1,,,,
0.0005897841,0.0007259196,-0.001522054,0.1793883,-0.3096264,-9.61734,24.05023,24.05023,1000,1000,1,1,,,,
-5.29E-05,0.001196088,-0.001117108,0.1752824,-0.3227251,-9.606466,24.05085,24.05085,1000,1000,1,1,,,,
-0.0004939375,0.0005057658,-0.000991216,0.1673028,-0.3312541,-9.63318,24.05113,24.05113,1000,1000,1,1,,,,
-0.002070271,0.0006547871,0.0005996258,0.1664334,-0.3366414,-9.614042,24.05152,24.05152,1000,1000,1,1,,,,
-0.00274571,0.0003079578,0.0006981154,0.196018,-0.3414384,-9.601446,24.0522,24.0522,1000,1000,1,1,,,,
-0.002924434,-0.0004581907,0.001553847,0.1826952,-0.3317735,-9.559904,24.05302,24.05302,1000,1000,1,1,,,,
-0.002887468,-0.0007807448,0.002169092,0.1790103,-0.3133757,-9.499914,24.05388,24.05388,1000,1000,1,1,,,,
-0.002174133,0.0006243885,0.001964179,0.1665796,-0.2875918,-9.532981,24.05462,24.05462,1000,1000,1,1,,,,
-0.001077605,0.0005925762,0.002313344,0.1754536,-0.2813151,-9.574354,24.05551,24.05551,1000,1000,1,1,,,,
0.0002432177,0.001235069,0.002943608,0.1826854,-0.2554014,-9.545326,24.05643,24.05643,1000,1000,1,1,,,,
-0.001234052,0.0010363,0.002215202,0.1587044,-0.238992,-9.562169,24.05751,24.05751,1000,1000,1,1,,,,
0.0001370896,0.00131125,0.001328212,0.1708846,-0.2266473,-9.619437,24.05866,24.05866,1000,1000,1,1,,,,
0.002541224,0.0008474429,0.0005815959,0.1648585,-0.2235491,-9.603512,24.05994,24.05994,1000,1000,1,1,,,,
0.002023077,0.001081633,-0.0003895441,0.1563832,-0.2322686,-9.60024,24.0612,24.0612,1000,1000,1,1,,,,
0.002527209,0.0006943844,-4.45E-05,0.1553696,-0.2468147,-9.612028,24.06239,24.06239,1000,1000,1,1,,,,
0.001986984,0.0005116249,-0.001030294,0.1754759,-0.2792161,-9.595654,24.06352,24.06352,1000,1000,1,1,,,,
0.001359956,-0.0002966743,-0.001815391,0.1849217,-0.2960864,-9.577339,24.06427,24.06427,1000,1000,1,1,,,,
0.001571478,-0.000279523,-0.001871274,0.1765388,-0.3082178,-9.5446,24.0647,24.0647,1000,1000,1,1,,,,
0.001227523,0.001392405,-0.001303966,0.1889818,-0.3023425,-9.542403,24.06517,24.06517,1000,1000,1,1,,,,
0.000930152,0.0007570479,-0.001034053,0.1796078,-0.3161072,-9.569173,24.06561,24.06561,1000,1000,1,1,,,,
-0.001714308,0.0008669855,-0.0009286279,0.176631,-0.3315871,-9.566277,24.06592,24.06592,1000,1000,1,1,,,,
-0.002761415,0.0003280229,-0.001315569,0.180458,-0.3192841,-9.572284,24.06562,24.06562,1000,1000,1,1,,,,
-0.002705827,0.001444633,-4.62E-05,0.1708035,-0.3154524,-9.589138,24.06525,24.06525,1000,1000,1,1,,,,
-0.002626563,0.001070775,0.0007370323,0.1803784,-0.3105833,-9.614803,24.06482,24.06482,1000,1000,1,1,,,,
-0.003339151,-0.0003594465,0.000984581,0.1542925,-0.300049,-9.598475,24.06459,24.06459,1000,1000,1,1,,,,
-0.003639807,0.0001098352,0.0007814725,0.1613235,-0.3102777,-9.594706,24.06513,24.06513,1000,1000,1,1,,,,
-0.003047779,-0.0005606902,0.0008046061,0.1622213,-0.2986924,-9.598288,24.06582,24.06582,1000,1000,1,1,,,,
-0.002089666,4.25E-05,0.0008618648,0.1703729,-0.2804254,-9.573589,24.06643,24.06643,1000,1000,1,1,,,,
-0.001565644,-8.24E-05,0.001053569,0.1622488,-0.2859234,-9.574507,24.06719,24.06719,1000,1000,1,1,,,,
-0.001508916,0.0005634754,0.0008774244,0.16923,-0.2738664,-9.545938,24.06804,24.06804,1000,1000,1,1,,,,
-0.0008068887,0.0011043,0.00106628,0.1730381,-0.2652905,-9.574857,24.06895,24.06895,1000,1000,1,1,,,,
0.0007698409,0.0008619111,0.0004078542,0.1681036,-0.2526046,-9.600046,24.06986,24.06986,1000,1000,1,1,,,,
0.0006689429,0.001262665,0.0001958179,0.1652753,-0.2752029,-9.599407,24.07089,24.07089,1000,1000,1,1,,,,
0.0009276475,0.001015418,0.0002722795,0.1602865,-0.2596781,-9.61073,24.07206,24.07206,1000,1000,1,1,,,,
0.002042865,0.000866073,-0.0002904422,0.1749293,-0.2767975,-9.604789,24.07306,24.07306,1000,1000,1,1,,,,
0.00221827,3.55E-05,-0.001025473,0.1852756,-0.2847169,-9.60956,24.07398,24.07398,1000,1000,1,1,,,,
0.001309981,0.0007369873,-0.001357625,0.1758094,-0.292499,-9.571109,24.07487,24.07487,1000,1000,1,1,,,,
0.000718994,0.000218178,-0.001030139,0.1836298,-0.2792099,-9.556948,24.07581,24.07581,1000,1000,1,1,,,,
-0.0004068784,-0.0007271181,-0.0008060749,0.1807137,-0.3199686,-9.55964,24.07694,24.07694,1000,1000,1,1,,,,
-0.001030554,0.0002202801,-0.001103511,0.1722358,-0.3272933,-9.545406,24.07809,24.07809,1000,1000,1,1,,,,
-0.001803902,0.0005073202,-0.0001874132,0.1720324,-0.3220272,-9.566271,24.07891,24.07891,1000,1000,1,1,,,,
-0.002134195,0.0004557054,2.01E-05,0.1718355,-0.3092595,-9.55817,24.07957,24.07957,1000,1000,1,1,,,,
-0.00340983,0.0007574335,9.66E-05,0.1669515,-0.3031294,-9.580209,24.0801,24.0801,1000,1000,1,1,,,,
-0.002082002,0.0007451364,0.000360451,0.1476884,-0.3127089,-9.576062,24.08063,24.08063,1000,1000,1,1,,,,
-0.002749579,0.001043471,0.0007452463,0.1592245,-0.2976182,-9.591676,24.08122,24.08122,1000,1000,1,1,,,,
-0.002558649,0.0004458055,0.0009860214,0.1596655,-0.2776504,-9.599962,24.08201,24.08201,1000,1000,1,1,,,,
-0.001997967,0.00097077,0.0006273311,0.1653903,-0.2714591,-9.610034,24.08273,24.08273,1000,1000,1,1,,,,
-0.001338862,0.0001270757,0.0002837642,0.1403418,-0.259568,-9.571197,24.08338,24.08338,1000,1000,1,1,,,,
-0.0006675845,0.0002048985,0.0005108477,0.162232,-0.2566876,-9.556841,24.08408,24.08408,1000,1000,1,1,,,,
-0.0003109886,0.0008881284,0.0004787025,0.1783004,-0.2566184,-9.573109,24.08499,24.08499,1000,1000,1,1,,,,
0.001148713,0.0004544009,0.0005975394,0.1668456,-0.2699756,-9.557357,24.08618,24.08618,1000,1000,1,1,,,,
0.001608546,-6.46E-06,9.87E-05,0.1985535,-0.2608088,-9.592663,24.08744,24.08744,1000,1000,1,1,,,,
0.001261357,0.001118545,0.0006850276,0.1718063,-0.2734613,-9.560682,24.08868,24.08868,1000,1000,1,1,,,,
0.001732104,0.0009680938,-3.75E-05,0.1650308,-0.2817779,-9.588359,24.08976,24.08976,1000,1000,1,1,,,,
0.001129326,0.0004748641,-0.0006023535,0.183972,-0.2781432,-9.585867,24.09073,24.09073,1000,1000,1,1,,,,
0.001150263,0.0009668469,6.34E-05,0.195425,-0.2901016,-9.595424,24.09157,24.09157,1000,1000,1,1,,,,
0.0008546942,0.0004982903,0.0005537004,0.1746799,-0.2989746,-9.611783,24.0923,24.0923,1000,1000,1,1,,,,
0.0002284556,-0.0002836927,-0.000183129,0.1896297,-0.3192358,-9.595682,24.09297,24.09297,1000,1000,1,1,,,,
-0.001488678,-0.0006407055,-0.0005132796,0.1770601,-0.3306631,-9.593442,24.09319,24.09319,1000,1000,1,1,,,,
-0.001100024,0.0004142667,-0.0006444023,0.1588274,-0.3165705,-9.568466,24.09329,24.09329,1000,1000,1,1,,,,
-0.002012213,0.000346576,-0.0005372306,0.1619573,-0.3021043,-9.554853,24.09339,24.09339,1000,1000,1,1,,,,
-0.00131699,0.0004847603,-1.57E-05,0.1887315,-0.3013347,-9.574665,24.09341,24.09341,1000,1000,1,1,,,,
-0.002863035,-0.0002779416,0.0004317881,0.1709345,-0.300017,-9.556704,24.09341,24.09341,1000,1000,1,1,,,,
-0.002726555,0.001159895,0.0001123852,0.1559228,-0.2981595,-9.554406,24.09341,24.09341,1000,1000,1,1,,,,
-0.002508439,0.001203702,-1.60E-06,0.1566125,-0.3022166,-9.565207,24.09331,24.09331,1000,1000,1,1,,,,
-0.00120049,0.0002833026,6.79E-05,0.1714705,-0.2729115,-9.601182,24.09322,24.09322,1000,1000,1,1,,,,
-0.0001802031,0.0007804272,0.000526942,0.1544301,-0.2527838,-9.581476,24.0931,24.0931,1000,1000,1,1,,,,
0.001315117,0.001458153,-1.61E-05,0.1919849,-0.2402399,-9.611364,24.09301,24.09301,1000,1000,1,1,,,,
0.001105204,0.001346185,0.0005161117,0.1742391,-0.2580028,-9.579792,24.09315,24.09315,1000,1000,1,1,,,,
0.001046829,0.0002547675,-7.25E-05,0.1818485,-0.2646009,-9.577805,24.09337,24.09337,1000,1000,1,1,,,,
0.002176794,0.001529358,0.000519698,0.18077,-0.2692308,-9.591681,24.09386,24.09386,1000,1000,1,1,,,,
0.003844584,0.0007648942,0.0007533213,0.1803008,-0.2726806,-9.573448,24.09474,24.09474,1000,1000,1,1,,,,
0.003591338,6.59E-05,0.0003908453,0.2048623,-0.3167745,-9.594783,24.0958,24.0958,1000,1000,1,1,,,,
0.002939434,0.0007056821,0.0001896547,0.179034,-0.3256676,-9.579031,24.09671,24.09671,1000,1000,1,1,,,,
0.002774692,0.0003764834,-4.18E-05,0.1971688,-0.3034222,-9.587541,24.09758,24.09758,1000,1000,1,1,,,,
0.002630708,0.0004376628,0.0003751538,0.1663057,-0.3059621,-9.567542,24.0983,24.0983,1000,1000,1,1,,,,
0.001391767,0.0005196058,5.62E-05,0.1911277,-0.3071907,-9.568369,24.09911,24.09911,1000,1000,1,1,,,,
-0.0006894008,-0.0001112009,0.001006651,0.1535653,-0.2926197,-9.576815,24.10011,24.10011,1000,1000,1,1,,,,
0.0004595204,0.0004309286,0.000917524,0.1684839,-0.2991661,-9.59712,24.10107,24.10107,1000,1000,1,1,,,,
-0.0005016151,0.001196354,8.83E-06,0.1684121,-0.2986733,-9.607569,24.1022,24.1022,1000,1000,1,1,,,,
-0.001959224,0.0007186878,-0.000283821,0.1507589,-0.300751,-9.553043,24.10353,24.10353,1000,1000,1,1,,,,
-0.00128255,0.0003031778,0.0003570618,0.1550842,-0.2915329,-9.557683,24.10474,24.10474,1000,1000,1,1,,,,
-0.001074675,0.0001769568,8.83E-05,0.1475186,-0.2808628,-9.557119,24.10584,24.10584,1000,1000,1,1,,,,
-0.001447182,0.0006591268,-0.0008689623,0.1693181,-0.2668744,-9.580204,24.10714,24.10714,1000,1000,1,1,,,,
-0.001182436,0.0009434593,-0.0009857977,0.1726277,-0.269123,-9.570214,24.10836,24.10836,1000,1000,1,1,,,,
-0.000171976,0.000329391,0.0005152789,0.1618601,-0.2467198,-9.583666,24.10945,24.10945,1000,1000,1,1,,,,
0.0006270747,0.0006232024,0.0002313764,0.1801723,-0.2680549,-9.577854,24.11056,24.11056,1000,1000,1,1,,,,
0.001611899,0.001741476,-0.0002256389,0.1894922,-0.2744091,-9.581083,24.11188,24.11188,1000,1000,1,1,,,,
0.001712309,0.001509306,-9.66E-05,0.1768552,-0.2756854,-9.597626,24.11333,24.11333,1000,1000,1,1,,,,
0.002434137,0.001516181,8.33E-06,0.183948,-0.2758738,-9.604652,24.11455,24.11455,1000,1000,1,1,,,,
0.002680989,0.001806852,-2.28E-05,0.1974504,-0.289097,-9.587851,24.11574,24.11574,1000,1000,1,1,,,,
0.002183922,0.0008345612,0.0001293234,0.19226,-0.300508,-9.576726,24.11693,24.11693,1000,1000,1,1,,,,
0.002784659,0.0006169615,0.0006181949,0.1868117,-0.3101307,-9.555419,24.11808,24.11808,1000,1000,1,1,,,,
0.002105312,0.0003051076,0.0007258747,0.1814867,-0.3280443,-9.590137,24.1189,24.1189,1000,1000,1,1,,,,
0.0005557332,6.15E-05,0.0007112949,0.1819882,-0.3357246,-9.577977,24.11951,24.11951,1000,1000,1,1,,,,
0.0007045278,0.001035533,0.0003642839,0.1786087,-0.3272606,-9.560107,24.12021,24.12021,1000,1000,1,1,,,,
-0.0007412101,0.0006946352,0.0001055593,0.1563155,-0.3234406,-9.563253,24.12075,24.12075,1000,1000,1,1,,,,
-0.001613637,-0.0003562138,0.001195509,0.1696895,-0.2878899,-9.569655,24.12135,24.12135,1000,1000,1,1,,,,
-0.002753891,0.0003293148,0.0006876422,0.1644331,-0.277475,-9.535359,24.12177,24.12177,1000,1000,1,1,,,,
-0.002917354,0.000906477,0.000552389,0.1592837,-0.281615,-9.599844,24.12219,24.12219,1000,1000,1,1,,,,
-0.002517592,0.0007292998,0.0004022588,0.1385729,-0.2849879,-9.590099,24.12272,24.12272,1000,1000,1,1,,,,
-0.002674019,0.0003119205,-0.0003017351,0.1608947,-0.2823621,-9.591384,24.12357,24.12357,1000,1000,1,1,,,,
-0.002555563,-0.0001059124,-0.0006465893,0.152388,-0.2703134,-9.572985,24.12457,24.12457,1000,1000,1,1,,,,
-0.001544568,0.0003389239,-0.00100752,0.1719321,-0.2561696,-9.572687,24.12558,24.12558,1000,1000,1,1,,,,
-0.001016308,4.73E-05,-0.0006007883,0.1726518,-0.2642984,-9.588022,24.12666,24.12666,1000,1000,1,1,,,,
0.0008090095,-5.31E-05,-0.0009702165,0.1799679,-0.2921383,-9.618359,24.12768,24.12768,1000,1000,1,1,,,,
0.0001297762,8.11E-06,-0.0006417545,0.1799708,-0.2548269,-9.581013,24.12851,24.12851,1000,1000,1,1,,,,
0.001330987,0.0008048855,-0.0005156248,0.1804294,-0.2716318,-9.566442,24.12923,24.12923,1000,1000,1,1,,,,
0.001534341,0.0007682218,0.0002162344,0.1917301,-0.2915871,-9.596005,24.12976,24.12976,1000,1000,1,1,,,,
0.002227535,0.001361133,-0.001036552,0.1951285,-0.2953548,-9.585704,24.13016,24.13016,1000,1000,1,1,,,,
0.001739404,0.001151103,-0.0003249958,0.1732717,-0.3023597,-9.594405,24.13053,24.13053,1000,1000,1,1,,,,
0.001896486,0.0007979005,0.0009831843,0.1991158,-0.3022302,-9.607027,24.13084,24.13084,1000,1000,1,1,,,,
0.000883166,-0.0002364386,0.0009720775,0.170328,-0.3212507,-9.600648,24.13086,24.13086,1000,1000,1,1,,,,
0.001465614,0.0006277068,0.001260658,0.1826611,-0.3161078,-9.596577,24.13073,24.13073,1000,1000,1,1,,,,
0.0004351906,0.0005491169,0.001360348,0.1821681,-0.3253229,-9.590405,24.13087,24.13087,1000,1000,1,1,,,,
0.0001296535,3.43E-05,0.001509963,0.1767112,-0.306167,-9.578644,24.13061,24.13061,1000,1000,1,1,,,,
-0.0003460005,0.0002733759,0.001000869,0.1576904,-0.29473,-9.561723,24.13046,24.13046,1000,1000,1,1,,,,
-0.0009059254,-0.000926076,0.001347916,0.1751167,-0.2822063,-9.571671,24.1303,24.1303,1000,1000,1,1,,,,
-0.001426774,0.0002662595,0.000553319,0.1693709,-0.2874168,-9.564257,24.12989,24.12989,1000,1000,1,1,,,,
-0.001529392,0.001274882,0.001178161,0.1714032,-0.2928696,-9.578665,24.12943,24.12943,1000,1000,1,1,,,,
-0.00166315,0.001544266,0.0008204661,0.1641257,-0.2846321,-9.573528,24.12903,24.12903,1000,1000,1,1,,,,
-0.001037935,0.0007754117,0.0002594595,0.1719143,-0.2537644,-9.590428,24.12917,24.12917,1000,1000,1,1,,,,
-0.0009184396,0.0004138796,-0.0002065455,0.156969,-0.2728549,-9.59756,24.12974,24.12974,1000,1000,1,1,,,,
-0.000938202,0.0009559982,-0.0009246094,0.1600092,-0.2775727,-9.58951,24.13037,24.13037,1000,1000,1,1,,,,
-0.0001288875,0.0008382767,-0.001126368,0.1659907,-0.266701,-9.603588,24.13096,24.13096,1000,1000,1,1,,,,
0.0002759654,5.90E-05,-0.001213289,0.1621704,-0.2776828,-9.569579,24.13142,24.13142,1000,1000,1,1,,,,
0.0003731471,4.26E-06,-0.001359305,0.185914,-0.2887187,-9.569172,24.13173,24.13173,1000,1000,1,1,,,,
3.38E-05,0.001047155,-0.001031185,0.1769998,-0.2751436,-9.556668,24.132,24.132,1000,1000,1,1,,,,
0.0005753583,0.001369088,-0.001140107,0.1965813,-0.2750874,-9.555502,24.13183,24.13183,1000,1000,1,1,,,,
0.001020049,0.0005511333,-0.001084118,0.1794629,-0.3078896,-9.575843,24.13202,24.13202,1000,1000,1,1,,,,
0.00107002,0.0004769345,4.45E-06,0.1794378,-0.3109894,-9.598694,24.13242,24.13242,1000,1000,1,1,,,,
0.001624298,0.0008844395,0.0003479061,0.1704203,-0.3329027,-9.616959,24.13296,24.13296,1000,1000,1,1,,,,
0.001033751,0.0005683099,0.0001668317,0.1654618,-0.3101121,-9.612882,24.13358,24.13358,1000,1000,1,1,,,,
0.0007028832,0.0004771276,-0.0002961932,0.1851796,-0.3110338,-9.594065,24.13406,24.13406,1000,1000,1,1,,,,
-0.0002192303,-0.0001237313,0.001237022,0.1937207,-0.3063743,-9.581125,24.13452,24.13452,1000,1000,1,1,,,,
-0.000468084,0.0003493137,0.001382594,0.185452,-0.3008577,-9.583858,24.13525,24.13525,1000,1000,1,1,,,,
-0.0007408746,0.0002044576,0.001571796,0.190222,-0.2900786,-9.561873,24.13598,24.13598,1000,1000,1,1,,,,
-0.001000867,0.0009508731,0.0006489309,0.169089,-0.2773318,-9.567054,24.13658,24.13658,1000,1000,1,1,,,,
-0.0004557697,-0.000327173,0.0008252684,0.1704654,-0.281599,-9.570047,24.13719,24.13719,1000,1000,1,1,,,,
-0.001041244,8.53E-05,0.00139614,0.1690002,-0.2741824,-9.58546,24.13805,24.13805,1000,1000,1,1,,,,
-0.001468103,0.0007109259,0.0003357979,0.1695852,-0.2787357,-9.594943,24.13936,24.13936,1000,1000,1,1,,,,
-0.001282571,0.0001580521,0.0003456054,0.149207,-0.2703286,-9.577166,24.14045,24.14045,1000,1000,1,1,,,,
-0.0002878096,0.0001316771,-0.0003332582,0.1737733,-0.2736675,-9.577299,24.14134,24.14134,1000,1000,1,1,,,,
-1.04E-05,0.001445305,7.86E-05,0.1607305,-0.2801628,-9.56113,24.14232,24.14232,1000,1000,1,1,,,,
0.0001363,0.0001476197,-0.000537287,0.1776627,-0.282643,-9.605155,24.14351,24.14351,1000,1000,1,1,,,,
-0.001176076,0.0007914035,-0.001037862,0.1516319,-0.2834236,-9.591224,24.14475,24.14475,1000,1000,1,1,,,,
-9.78E-05,0.0008477255,-0.0009094087,0.1692581,-0.2724201,-9.580287,24.14586,24.14586,1000,1000,1,1,,,,
0.0001530624,0.0007975521,-0.0006314255,0.172222,-0.2815491,-9.537942,24.14693,24.14693,1000,1000,1,1,,,,
-0.0002246455,0.0009638997,-0.00126305,0.1790844,-0.2869323,-9.599487,24.14773,24.14773,1000,1000,1,1,,,,
-0.0008446136,0.0009601595,-0.0009576831,0.1843762,-0.3098119,-9.578468,24.14846,24.14846,1000,1000,1,1,,,,
-0.0006833854,0.0007444146,0.0001732165,0.1653805,-0.3061095,-9.582575,24.14907,24.14907,1000,1000,1,1,,,,
-0.001042108,0.001473794,-6.94E-05,0.1651373,-0.3276317,-9.589699,24.14975,24.14975,1000,1000,1,1,,,,
-0.0006446732,0.001518704,0.0002460321,0.1664947,-0.3173018,-9.597486,24.15065,24.15065,1000,1000,1,1,,,,
-0.001136888,0.0003988414,-0.0002660878,0.1811327,-0.3004885,-9.593842,24.15158,24.15158,1000,1000,1,1,,,,
-0.0003642975,0.000711751,0.0005384366,0.1813291,-0.2875016,-9.58103,24.15242,24.15242,1000,1000,1,1,,,,
-0.001119635,0.0008430519,0.0006143019,0.1947144,-0.2799781,-9.623321,24.15329,24.15329,1000,1000,1,1,,,,
5.03E-05,0.0001673873,0.0004112509,0.1888744,-0.2941813,-9.587522,24.15415,24.15415,1000,1000,1,1,,,,
-0.0003905006,-5.85E-06,0.001038534,0.1885552,-0.2991664,-9.592275,24.15511,24.15511,1000,1000,1,1,,,,
-0.0004404642,-0.0001737814,0.001122085,0.1866933,-0.2804689,-9.564946,24.15608,24.15608,1000,1000,1,1,,,,
-6.46E-05,0.0003166783,0.0009062837,0.1695406,-0.2772658,-9.555988,24.15699,24.15699,1000,1000,1,1,,,,
-0.0001059905,-0.0008233144,0.0002803763,0.1658285,-0.289895,-9.547624,24.15784,24.15784,1000,1000,1,1,,,,
0.0005083786,-0.0001312015,0.0003049508,0.1685602,-0.2719589,-9.538989,24.15876,24.15876,1000,1000,1,1,,,,
-0.0001136313,0.0004073928,0.000224033,0.1780325,-0.2680644,-9.572405,24.15973,24.15973,1000,1000,1,1,,,,
0.0008221124,0.0006678816,0.0001942965,0.1695537,-0.2965904,-9.558976,24.16072,24.16072,1000,1000,1,1,,,,
0.001188444,0.0002884308,0.0004195326,0.1680018,-0.2900166,-9.573181,24.16166,24.16166,1000,1000,1,1,,,,
0.001157563,0.001378799,-4.33E-05,0.1424337,-0.2696899,-9.579779,24.16262,24.16262,1000,1000,1,1,,,,
0.000758219,0.001046085,-0.0004718436,0.1579257,-0.291932,-9.571646,24.16355,24.16355,1000,1000,1,1,,,,
-0.0002039118,0.0006739991,-8.43E-06,0.1412523,-0.2822088,-9.562548,24.16423,24.16423,1000,1000,1,1,,,,
-0.000635646,0.00112444,-1.59E-05,0.1625935,-0.2858878,-9.55709,24.16491,24.16491,1000,1000,1,1,,,,
-0.0007255272,0.0007494778,-0.0002153565,0.1772348,-0.298097,-9.587585,24.16564,24.16564,1000,1000,1,1,,,,
-0.001120195,0.001236954,-0.0001170105,0.1779836,-0.2885045,-9.574175,24.16599,24.16599,1000,1000,1,1,,,,
-0.0002446886,0.001679221,0.000247746,0.193254,-0.2839956,-9.605214,24.16618,24.16618,1000,1000,1,1,,,,
-0.000531029,0.0006329757,0.0003017279,0.176873,-0.2873891,-9.600726,24.16647,24.16647,1000,1000,1,1,,,,
-0.0009924448,0.0002444541,-0.000215807,0.1969869,-0.2952687,-9.599823,24.16684,24.16684,1000,1000,1,1,,,,
-0.0003722074,0.000235634,7.55E-05,0.1707447,-0.2774106,-9.586505,24.16696,24.16696,1000,1000,1,1,,,,
-0.0005125416,0.0009847754,-0.0004829988,0.2008178,-0.2730825,-9.558825,24.16662,24.16662,1000,1000,1,1,,,,
0.0004263724,0.000541514,-0.0001118136,0.1790574,-0.2812231,-9.568534,24.16639,24.16639,1000,1000,1,1,,,,
0.0001930285,1.84E-05,-0.0002527575,0.1876717,-0.2865359,-9.593273,24.16629,24.16629,1000,1000,1,1,,,,
-0.0002339372,-0.0004887006,0.0003033546,0.1872172,-0.2713581,-9.593411,24.16661,24.16661,1000,1000,1,1,,,,
0.001310362,-0.0002308269,0.0004341558,0.1693732,-0.2781447,-9.586677,24.16736,24.16736,1000,1000,1,1,,,,
0.001220411,0.0009775765,0.0001812898,0.1568758,-0.2832707,-9.557854,24.16835,24.16835,1000,1000,1,1,,,,
0.001268046,0.0002219592,-0.0003567703,0.1708262,-0.2822217,-9.568271,24.16949,24.16949,1000,1000,1,1,,,,
0.001842407,0.0001197916,8.50E-05,0.1539846,-0.3076572,-9.582514,24.17072,24.17072,1000,1000,1,1,,,,
0.0007297479,0.0006158586,2.94E-05,0.1549889,-0.2979591,-9.56641,24.17216,24.17216,1000,1000,1,1,,,,
0.0009784376,0.0007973748,0.00125056,0.1605597,-0.3196487,-9.569344,24.17367,24.17367,1000,1000,1,1,,,,
0.001029274,-4.39E-07,0.001339646,0.1782082,-0.2994183,-9.578682,24.17527,24.17527,1000,1000,1,1,,,,
0.0001732581,0.0007862526,0.000357044,0.156536,-0.3052589,-9.565742,24.17675,24.17675,1000,1000,1,1,,,,
-0.0005270973,0.0009360666,0.0007897564,0.1729863,-0.2988766,-9.580953,24.17855,24.17855,1000,1000,1,1,,,,
-0.001672928,0.001186189,0.0002735517,0.1697954,-0.2950427,-9.587559,24.18039,24.18039,1000,1000,1,1,,,,
-0.001351299,0.00099868,8.24E-05,0.1855062,-0.2890439,-9.579833,24.18206,24.18206,1000,1000,1,1,,,,
-0.001825591,0.0003210724,-8.97E-05,0.1750658,-0.2812819,-9.571445,24.18362,24.18362,1000,1000,1,1,,,,
-0.001563725,0.001208602,-0.0002533615,0.1894565,-0.2801562,-9.579238,24.18499,24.18499,1000,1000,1,1,,,,
-0.001366573,0.001229971,-0.0002352501,0.1800386,-0.2949975,-9.589226,24.18616,24.18616,1000,1000,1,1,,,,
-0.001351792,0.001170816,-4.90E-05,0.1911962,-0.2824102,-9.608664,24.1874,24.1874,1000,1000,1,1,,,,
-0.0004776495,0.0006898607,-0.0004218456,0.199264,-0.2859748,-9.579499,24.18858,24.18858,1000,1000,1,1,,,,
7.54E-05,9.42E-05,-0.0008218226,0.1836316,-0.2789072,-9.569993,24.18966,24.18966,1000,1000,1,1,,,,
-6.29E-06,7.29E-05,0.0002312418,0.1765644,-0.2777243,-9.575386,24.1905,24.1905,1000,1000,1,1,,,,
0.001052306,0.0005429672,-0.0004709901,0.1947546,-0.2795038,-9.608054,24.19123,24.19123,1000,1000,1,1,,,,
0.0009888785,-0.0001130699,-3.01E-05,0.1509945,-0.2949652,-9.568907,24.19204,24.19204,1000,1000,1,1,,,,
0.0007011938,0.0007270171,-0.0001640063,0.1855727,-0.3044699,-9.580294,24.19275,24.19275,1000,1000,1,1,,,,
0.0009269319,0.0005703424,0.0001026771,0.1682068,-0.3155287,-9.592463,24.19328,24.19328,1000,1000,1,1,,,,
0.0006659343,-0.0002454413,0.0004157537,0.1805849,-0.2868671,-9.608832,24.19355,24.19355,1000,1000,1,1,,,,
0.0003606332,-0.0005006046,0.0002166102,0.1524842,-0.3102203,-9.561872,24.19381,24.19381,1000,1000,1,1,,,,
0.0003611681,5.71E-05,0.0002805143,0.1518133,-0.3019468,-9.543947,24.19424,24.19424,1000,1000,1,1,,,,
0.0003514129,0.0001449438,0.0009762918,0.1505827,-0.3103185,-9.585034,24.19467,24.19467,1000,1000,1,1,,,,
-0.0002950121,0.001192106,0.001024727,0.1580914,-0.3080683,-9.544491,24.19499,24.19499,1000,1000,1,1,,,,
-0.0006882829,0.001050785,0.0007320051,0.1563533,-0.2921453,-9.541647,24.19542,24.19542,1000,1000,1,1,,,,
-0.0006912826,0.001432213,0.0009042892,0.1579751,-0.2973121,-9.579413,24.19589,24.19589,1000,1000,1,1,,,,
-0.002245251,0.00147104,4.16E-05,0.1640033,-0.2840313,-9.570326,24.19653,24.19653,1000,1000,1,1,,,,
-0.001252132,0.001914869,0.0001491544,0.1740315,-0.2693137,-9.582527,24.19699,24.19699,1000,1000,1,1,,,,
-0.00133034,0.001186812,8.54E-05,0.1874926,-0.2730871,-9.617988,24.19705,24.19705,1000,1000,1,1,,,,
-0.001206939,0.00116505,0.0006409505,0.1870358,-0.2744395,-9.624933,24.1972,24.1972,1000,1000,1,1,,,,
-0.001354221,0.001450869,-0.0004150046,0.189434,-0.2806721,-9.572023,24.19724,24.19724,1000,1000,1,1,,,,
-0.001124259,-0.0001923917,-0.0005500257,0.1858661,-0.2729103,-9.570798,24.19709,24.19709,1000,1000,1,1,,,,
-0.0009783537,0.000619641,-0.0009905221,0.2068062,-0.2744826,-9.592293,24.19692,24.19692,1000,1000,1,1,,,,
-0.0007118256,0.0005574167,-0.0008733267,0.1949313,-0.2984489,-9.561391,24.19684,24.19684,1000,1000,1,1,,,,
-3.94E-05,0.0001219039,-0.0005595475,0.1896765,-0.2803147,-9.577053,24.19692,24.19692,1000,1000,1,1,,,,
0.0004145684,-0.0001345729,-0.000856156,0.1681297,-0.2840568,-9.585839,24.19682,24.19682,1000,1000,1,1,,,,
0.0001557035,0.0003291143,-0.0006354536,0.1786839,-0.2918871,-9.607901,24.19695,24.19695,1000,1000,1,1,,,,
4.09E-05,-4.73E-05,-0.0001922568,0.1882614,-0.3002838,-9.607136,24.19688,24.19688,1000,1000,1,1,,,,
0.0001612703,-0.0004815322,-0.0007773423,0.160197,-0.3160803,-9.586502,24.19694,24.19694,1000,1000,1,1,,,,
0.000732211,0.0001305856,-6.68E-05,0.1789851,-0.3300739,-9.571631,24.19681,24.19681,1000,1000,1,1,,,,
0.0003476741,6.38E-05,-0.0001783808,0.1403077,-0.3170251,-9.570564,24.19681,24.19681,1000,1000,1,1,,,,
-0.001103919,0.0001027436,0.0005820157,0.1554938,-0.3000953,-9.5812,24.19687,24.19687,1000,1000,1,1,,,,
-0.0005986287,0.001314966,0.0004579197,0.1658472,-0.3085746,-9.580848,24.19708,24.19708,1000,1000,1,1,,,,
-0.0008575958,0.000826604,0.0008260511,0.1698329,-0.2997754,-9.576964,24.19741,24.19741,1000,1000,1,1,,,,
-0.0001473925,0.0007008528,0.0007970493,0.1657717,-0.2942574,-9.566236,24.19794,24.19794,1000,1000,1,1,,,,
-0.0002920872,0.001025154,0.0006945962,0.1699564,-0.2906387,-9.561501,24.19858,24.19858,1000,1000,1,1,,,,
-0.000977788,0.001259684,0.0003414708,0.1712947,-0.2824224,-9.571257,24.19895,24.19895,1000,1000,1,1,,,,
-0.0005536029,0.001836381,-7.85E-05,0.1834868,-0.2796621,-9.594053,24.19939,24.19939,1000,1000,1,1,,,,
-0.001151325,0.0008806876,8.72E-05,0.1766491,-0.2714512,-9.600671,24.20005,24.20005,1000,1000,1,1,,,,
-0.001279552,0.001620373,-0.0001518794,0.1783109,-0.2722243,-9.611129,24.20065,24.20065,1000,1000,1,1,,,,
-0.001129991,0.0005366643,-0.0004446504,0.198624,-0.2574811,-9.608866,24.20134,24.20134,1000,1000,1,1,,,,
-0.0008205572,0.0002877129,-0.001265557,0.184846,-0.271948,-9.603653,24.20234,24.20234,1000,1000,1,1,,,,
-0.0002887792,0.0004703276,-0.001733294,0.1877882,-0.2777703,-9.575152,24.20348,24.20348,1000,1000,1,1,,,,
-0.0003937995,9.04E-05,-0.00174064,0.1834872,-0.291665,-9.569165,24.20458,24.20458,1000,1000,1,1,,,,
-0.0009683541,-0.0001524435,-0.001085204,0.1913319,-0.299422,-9.586227,24.2056,24.2056,1000,1000,1,1,,,,
-0.0008736118,0.0003575057,-0.000988467,0.1851712,-0.2961118,-9.580915,24.20661,24.20661,1000,1000,1,1,,,,
-0.0005661992,-0.0004283816,-0.001289374,0.1886791,-0.278723,-9.574131,24.20759,24.20759,1000,1000,1,1,,,,
-0.0005105721,-8.28E-05,-0.0006278517,0.1810509,-0.3007698,-9.589778,24.20868,24.20868,1000,1000,1,1,,,,
-0.000590026,-0.0003076886,0.0002488946,0.1965617,-0.2954612,-9.550799,24.2097,24.2097,1000,1000,1,1,,,,
-0.0007455599,0.0007135205,0.0001424472,0.1661741,-0.2898194,-9.585335,24.21084,24.21084,1000,1000,1,1,,,,
-0.0008415137,0.0004177853,0.0004312346,0.16737,-0.3059371,-9.567794,24.21189,24.21189,1000,1000,1,1,,,,
-0.001665372,0.0003113443,0.001169136,0.1525253,-0.3101108,-9.58372,24.21281,24.21281,1000,1000,1,1,,,,
-0.000922419,0.0004208185,0.0005615972,0.1603864,-0.284099,-9.577233,24.21371,24.21371,1000,1000,1,1,,,,
-0.0004281493,0.0003974034,0.0002855432,0.172259,-0.2835694,-9.562931,24.21469,24.21469,1000,1000,1,1,,,,
-0.0005673802,0.001029506,0.0007734207,0.1754781,-0.2748169,-9.570007,24.21571,24.21571,1000,1000,1,1,,,,
-0.0003279783,0.0006867964,0.0003237575,0.1881038,-0.2913833,-9.575243,24.21691,24.21691,1000,1000,1,1,,,,
-0.0003362198,0.001268914,0.0004921547,0.173584,-0.3004469,-9.576265,24.2182,24.2182,1000,1000,1,1,,,,
0.000314519,0.00181778,0.0005914792,0.1925644,-0.2876473,-9.58542,24.21958,24.21958,1000,1000,1,1,,,,
0.0002365873,0.0006821468,0.000441717,0.1877703,-0.2885675,-9.599814,24.2212,24.2212,1000,1000,1,1,,,,
0.0005799428,0.001193405,-0.0006290328,0.1831856,-0.2779027,-9.586625,24.2228,24.2228,1000,1000,1,1,,,,
-0.0001032692,0.0006691219,-0.0002899936,0.166899,-0.2746811,-9.578766,24.22425,24.22425,1000,1000,1,1,,,,
-0.0001293359,-3.17E-05,-2.17E-05,0.1783144,-0.2677432,-9.570995,24.22548,24.22548,1000,1000,1,1,,,,
-0.0003685309,0.0002904178,0.0003927212,0.1700029,-0.2603997,-9.579267,24.22651,24.22651,1000,1000,1,1,,,,
-0.0006269877,0.0001326246,-0.0006791755,0.185574,-0.2840632,-9.567347,24.22752,24.22752,1000,1000,1,1,,,,
-0.000591753,0.0001992531,-0.0004205903,0.1795379,-0.2929229,-9.595606,24.22838,24.22838,1000,1000,1,1,,,,
1.61E-05,-0.0002141624,-0.0003787189,0.1594889,-0.2921931,-9.55831,24.22907,24.22907,1000,1000,1,1,,,,
-0.0004822562,0.0005290659,-0.0004270748,0.1563664,-0.3001451,-9.573376,24.22974,24.22974,1000,1000,1,1,,,,
-0.0001502859,0.0002457292,-0.0009717198,0.148835,-0.3062803,-9.559138,24.23036,24.23036,1000,1000,1,1,,,,
3.91E-05,0.0003985531,-0.0002040796,0.1532588,-0.3097133,-9.570265,24.23114,24.23114,1000,1000,1,1,,,,
-0.0002894137,0.0006854804,-3.39E-05,0.1516361,-0.2963734,-9.582477,24.23178,24.23178,1000,1000,1,1,,,,
-0.0006173546,0.0002570048,9.65E-05,0.1562996,-0.2849995,-9.578024,24.23229,24.23229,1000,1000,1,1,,,,
-0.0005400173,0.001167895,-7.84E-05,0.1635903,-0.2880612,-9.578381,24.23269,24.23269,1000,1000,1,1,,,,
-0.000899745,0.001153279,0.0003071004,0.1682599,-0.3053705,-9.577557,24.23307,24.23307,1000,1000,1,1,,,,
-0.0004762858,0.0002932761,0.0003933382,0.1603975,-0.2713224,-9.575604,24.23348,24.23348,1000,1000,1,1,,,,
-0.0006983014,0.0004813002,0.0006553835,0.1706135,-0.3056095,-9.564281,24.23415,24.23415,1000,1000,1,1,,,,
-0.00156678,-3.28E-05,0.0006640103,0.1656443,-0.2943638,-9.555688,24.23466,24.23466,1000,1000,1,1,,,,
-0.0003876541,0.000806287,0.0005637875,0.1758749,-0.2803418,-9.567459,24.23459,24.23459,1000,1000,1,1,,,,
-0.001236536,3.35E-05,0.0006727878,0.1687234,-0.2817346,-9.561526,24.23406,24.23406,1000,1000,1,1,,,,
-0.00137054,0.0002347649,-0.0001441451,0.1789264,-0.2882344,-9.59796,24.2334,24.2334,1000,1000,1,1,,,,
-0.0009114768,0.0003294636,0.000214281,0.190485,-0.2770893,-9.601717,24.23284,24.23284,1000,1000,1,1,,,,
-0.0001028022,0.0007279172,-0.000803481,0.1707805,-0.2782918,-9.623217,24.23259,24.23259,1000,1000,1,1,,,,
-0.0006596484,0.0001688238,-0.0006171342,0.1563257,-0.268087,-9.589676,24.23222,24.23222,1000,1000,1,1,,,,
-0.001246525,-0.0002285231,-9.25E-05,0.155881,-0.2815917,-9.57131,24.23187,24.23187,1000,1000,1,1,,,,
-0.0006522121,0.0002165222,5.90E-05,0.1509252,-0.2908864,-9.593741,24.23194,24.23194,1000,1000,1,1,,,,
-0.0003001572,0.0003129088,-4.20E-05,0.1783473,-0.2752605,-9.598499,24.23189,24.23189,1000,1000,1,1,,,,
-8.80E-05,0.001025787,-0.0006222702,0.1638876,-0.2910528,-9.613898,24.23187,24.23187,1000,1000,1,1,,,,
0.0006014762,0.0005541954,-0.0005702378,0.1730739,-0.2824048,-9.580037,24.23177,24.23177,1000,1000,1,1,,,,
0.0004696361,0.0009417195,6.28E-05,0.163177,-0.2850375,-9.545339,24.23205,24.23205,1000,1000,1,1,,,,
0.001790833,0.0007089389,0.0001081954,0.161152,-0.2936901,-9.574912,24.23225,24.23225,1000,1000,1,1,,,,
0.0008982332,0.001125336,-0.0002989197,0.165179,-0.3072158,-9.564744,24.23255,24.23255,1000,1000,1,1,,,,
0.0001911669,0.001128035,0.0003388562,0.155974,-0.2906583,-9.570211,24.2327,24.2327,1000,1000,1,1,,,,
0.0003868366,0.000286435,0.0004317467,0.1838627,-0.2868373,-9.576538,24.23286,24.23286,1000,1000,1,1,,,,
0.001108248,0.001215322,0.001022419,0.1709133,-0.3014987,-9.594262,24.23339,24.23339,1000,1000,1,1,,,,
0.0009151553,0.0002839006,0.0002357032,0.1653842,-0.2947158,-9.582675,24.23409,24.23409,1000,1000,1,1,,,,
0.0008823475,0.0006781698,0.0001777523,0.1704461,-0.2934347,-9.59655,24.23479,24.23479,1000,1000,1,1,,,,
0.0008231531,0.0005383444,0.0007887986,0.1800011,-0.289951,-9.569703,24.23557,24.23557,1000,1000,1,1,,,,
0.0008812098,0.0007064247,0.001029812,0.1735603,-0.2935846,-9.565594,24.23647,24.23647,1000,1000,1,1,,,,
-0.0001184894,-0.0001803606,0.0001845262,0.1843968,-0.2865663,-9.600942,24.23733,24.23733,1000,1000,1,1,,,,
-0.0008860522,0.0005207602,0.0006590949,0.1816626,-0.2892697,-9.586596,24.2385,24.2385,1000,1000,1,1,,,,
3.42E-05,0.0008722297,0.0009575144,0.1908825,-0.2685864,-9.564775,24.23995,24.23995,1000,1000,1,1,,,,
-0.000444212,0.0004219812,-0.0001493527,0.1681486,-0.2766893,-9.582402,24.24147,24.24147,1000,1000,1,1,,,,
-0.0006508821,0.0004859704,-0.0006470133,0.1614553,-0.271289,-9.579622,24.24303,24.24303,1000,1000,1,1,,,,
-0.0001567202,0.0008268981,-0.0002608549,0.1768428,-0.2881194,-9.603173,24.24461,24.24461,1000,1000,1,1,,,,
6.26E-05,0.0003864272,0.0003975066,0.1549736,-0.2867405,-9.567352,24.24612,24.24612,1000,1000,1,1,,,,
-0.0004326827,-0.0003486042,-0.0002818393,0.1736915,-0.2914505,-9.593468,24.24755,24.24755,1000,1000,1,1,,,,
0.0008230855,0.0002972247,4.72E-05,0.1783577,-0.2920614,-9.577305,24.24916,24.24916,1000,1000,1,1,,,,
-0.0002331507,-0.0002782957,-3.60E-05,0.1777844,-0.2978394,-9.595856,24.25085,24.25085,1000,1000,1,0,,,,
-0.0007077084,-0.0006317328,-3.01E-05,0.1784753,-0.3101937,-9.556793,24.25252,24.25252,1000,1000,1,0,,,,
-0.0008627856,5.56E-05,-0.0001822957,0.1808153,-0.3031969,-9.575598,24.25416,24.25416,1000,1000,1,0,,,,
-0.0004064736,8.91E-05,-0.000231594,0.1645727,-0.2812342,-9.54269,24.2555,24.2555,1000,1000,1,0,,,,
-0.001056471,0.0007949589,0.0007408329,0.1786102,-0.2854816,-9.556341,24.25664,24.25664,1000,1000,1,0,,,,
-0.0001369167,0.000775648,-0.0008272579,0.1659435,-0.2850941,-9.584292,24.25745,24.25745,1000,1000,1,0,,,,
-0.0001772859,0.0006836978,0.000122049,0.1878678,-0.2957725,-9.590406,24.25806,24.25806,1000,1000,1,0,,,,
-0.0005349971,0.0008268473,0.0004269545,0.1614714,-0.3090646,-9.568965,24.25855,24.25855,1000,1000,1,0,,,,
0.0006763469,0.001511426,0.001297575,0.1650049,-0.2956321,-9.570027,24.25931,24.25931,1000,1000,1,0,,,,
-0.0005063794,-0.0003711226,0.0008306673,0.1786493,-0.2853247,-9.572792,24.26004,24.26004,1000,1000,1,0,,,,
0.000287499,6.35E-05,0.0004102338,0.1857505,-0.2902015,-9.58328,24.2608,24.2608,1000,1000,1,0,,,,
0.0004831845,0.0003359612,0.000581503,0.183846,-0.2810694,-9.579974,24.26155,24.26155,1000,1000,1,0,,,,
-0.0006707198,0.0001749299,0.0004062404,0.1679948,-0.2771841,-9.53723,24.26194,24.26194,1000,1000,1,0,,,,
2.14E-05,0.0007233082,0.0005890514,0.1812415,-0.2719143,-9.578852,24.26176,24.26176,1000,1000,1,0,,,,
-0.0004755926,-5.03E-05,0.0001535868,0.1824519,-0.2717044,-9.583738,24.26196,24.26196,1000,1000,1,0,,,,
-9.92E-05,9.06E-05,0.0006403659,0.2038286,-0.2895535,-9.575889,24.26211,24.26211,1000,1000,1,0,,,,
0.0007064099,0.0004515289,-0.0004168403,0.1693878,-0.2872595,-9.58523,24.26225,24.26225,1000,1000,1,0,,,,
-0.0002874685,0.0007971799,-6.75E-05,0.1528561,-0.2740724,-9.575503,24.26248,24.26248,1000,1000,1,0,,,,
-0.0008772027,5.94E-05,-0.0004209937,0.1732426,-0.2873866,-9.595897,24.26236,24.26236,1000,1000,1,0,,,,
-0.0003269342,-0.0004024962,-0.0001347355,0.1735237,-0.2916932,-9.586142,24.26221,24.26221,1000,1000,1,0,,,,
-0.0002677368,6.54E-05,0.0001105775,0.1720319,-0.2966807,-9.575563,24.26211,24.26211,1000,1000,1,0,,,,
0.0006738473,-0.0001072252,-0.000335212,0.1826892,-0.2828609,-9.580708,24.26201,24.26201,1000,1000,1,0,,,,
-0.0004242948,-0.0003576917,-0.0006473749,0.1560638,-0.2952639,-9.576153,24.26198,24.26198,1000,1000,1,0,,,,
2.32E-05,-3.02E-05,-0.0001025989,0.1616827,-0.3169045,-9.578564,24.26213,24.26213,1000,1000,1,0,,,,
-0.001137611,0.0007288809,-1.94E-05,0.1474312,-0.2985427,-9.560261,24.26226,24.26226,1000,1000,1,0,,,,
-8.20E-05,-0.000236806,-9.85E-05,0.1568634,-0.2855096,-9.563272,24.26251,24.26251,1000,1000,1,0,,,,
-0.0005464826,0.001307829,-0.0002018963,0.1606121,-0.3014597,-9.563433,24.26275,24.26275,1000,1000,1,0,,,,
-0.0005949377,0.0005693402,0.0002289917,0.1669415,-0.2985935,-9.589646,24.26315,24.26315,1000,1000,1,0,,,,
-9.58E-05,0.001581754,0.0006528741,0.1650657,-0.2955514,-9.599709,24.2637,24.2637,1000,1000,1,0,,,,
-0.0002027508,0.001920659,0.0004337844,0.1828417,-0.2804431,-9.588892,24.26426,24.26426,1000,1000,1,0,,,,
0.0004502253,0.0009872112,0.0009124269,0.1809375,-0.2881137,-9.584043,24.26505,24.26505,1000,1000,1,0,,,,
-0.0002721037,0.001146686,6.20E-05,0.193543,-0.2840873,-9.612396,24.26558,24.26558,1000,1000,1,0,,,,
-8.18E-05,0.0001930277,4.19E-05,0.1885476,-0.2876662,-9.588178,24.26608,24.26608,1000,1000,1,0,,,,
0.0002640059,-0.0005984156,0.0004703301,0.1899637,-0.2960911,-9.580269,24.26669,24.26669,1000,1000,1,0,,,,
0.0005613407,0.0005484248,0.0008496796,0.1966819,-0.3025515,-9.557101,24.26737,24.26737,1000,1000,1,0,,,,
4.21E-05,-6.35E-05,6.81E-05,0.1899049,-0.2975422,-9.566755,24.26805,24.26805,1000,1000,1,0,,,,
0.0002656286,0.0001655989,-0.0006339442,0.1688189,-0.2928836,-9.583561,24.26875,24.26875,1000,1000,1,0,,,,
-0.0004899748,0.0003867034,0.0001447331,0.1646126,-0.2881134,-9.572902,24.26918,24.26918,1000,1000,1,0,,,,
-0.0004612303,0.0001348834,0.0005588066,0.1617237,-0.28739,-9.574739,24.26894,24.26894,1000,1000,1,0,,,,
-0.0002631766,0.0005238948,-0.0001665732,0.1734827,-0.2947082,-9.572623,24.26933,24.26933,1000,1000,1,0,,,,
-0.0001996275,0.0003213099,-8.26E-05,0.1554979,-0.2871158,-9.56852,24.27012,24.27012,1000,1000,1,0,,,,
-0.0004188137,0.0007332487,0.0003545964,0.1543559,-0.2787213,-9.578037,24.27121,24.27121,1000,1000,1,0,,,,
-0.0005027853,0.001245506,-0.0005155051,0.1634105,-0.282286,-9.544636,24.27269,24.27269,1000,1000,1,0,,,,
0.0004090866,0.0009411477,0.0002276871,0.1758756,-0.2843832,-9.552447,24.27445,24.27445,1000,1000,1,0,,,,
-8.24E-05,0.001342331,0.0004901834,0.1605741,-0.2869772,-9.574842,24.27616,24.27616,1000,1000,1,0,,,,
7.17E-05,0.001094729,0.0003246443,0.1578178,-0.2985772,-9.555402,24.27802,24.27802,1000,1000,1,0,,,,
0.0001235227,0.00118612,-0.0003389146,0.1798081,-0.2841726,-9.582385,24.27975,24.27975,1000,1000,1,0,,,,
0.0006110923,0.0008212284,0.0001758729,0.1783658,-0.2975639,-9.573338,24.28142,24.28142,1000,1000,1,0,,,,
0.0009712352,0.001386792,0.0003572901,0.1935158,-0.276565,-9.601593,24.283,24.283,1000,1000,1,0,,,,
0.001297756,0.001390725,0.0002773285,0.1911256,-0.2936638,-9.601612,24.28439,24.28439,1000,1000,1,0,,,,
0.001031567,0.0007361966,0.0005099496,0.1948815,-0.2978981,-9.575766,24.28558,24.28558,1000,1000,1,0,,,,
0.0009969089,0.0001263809,0.0001578957,0.1992365,-0.2842513,-9.603177,24.28667,24.28667,1000,1000,1,0,,,,
0.000208973,0.000420576,0.0001648709,0.1803367,-0.2902484,-9.602399,24.28782,24.28782,1000,1000,1,0,,,,
-0.0002541783,0.000419356,8.01E-05,0.1765086,-0.2895949,-9.570183,24.28885,24.28885,1000,1000,1,0,,,,
0.0008974676,0.0003469191,0.0005376283,0.1650179,-0.2879328,-9.601848,24.28974,24.28974,1000,1000,1,0,,,,
-0.0003384494,-0.00023887,-0.0005243798,0.1827765,-0.2990849,-9.572587,24.29033,24.29033,1000,1000,1,0,,,,
-0.000140169,0.0006053006,0.0002665191,0.1861375,-0.3056334,-9.563131,24.2907,24.2907,1000,1000,0,0,,,,
-0.0004581474,-4.89E-05,0.0004968973,0.1560261,-0.3249518,-9.568316,24.29112,24.29112,1000,1000,0,0,,,,
-0.001772696,0.00102755,0.0009589267,0.1583049,-0.3024322,-9.579585,24.29178,24.29178,1000,1000,0,0,,,,
-0.001934133,-0.000336689,0.0004985172,0.1696355,-0.2886999,-9.581058,24.29246,24.29246,1000,1000,0,0,,,,
-0.002082948,5.59E-05,-0.0006719327,0.1453422,-0.3051185,-9.558872,24.29303,24.29303,1000,1000,0,0,,,,
-0.000640087,-5.90E-05,-0.0005943392,0.1479101,-0.288772,-9.563965,24.29338,24.29338,1000,1000,0,0,,,,
-0.001160498,0.0003144388,0.0001614061,0.1679731,-0.2838432,-9.588739,24.29383,24.29383,1000,1000,0,0,,,,
-0.0006957258,0.001231416,0.0003400053,0.1573735,-0.2941622,-9.578386,24.2942,24.2942,1000,1000,0,0,,,,
-0.0006835289,0.001096354,-0.0001935713,0.1473792,-0.2882811,-9.546254,24.29437,24.29437,1000,1000,0,0,,,,
-0.000171322,0.001394035,-0.0007591835,0.1583548,-0.2797377,-9.575304,24.29466,24.29466,1000,1000,0,0,,,,
-0.0001722133,0.001117126,-0.0006924508,0.173853,-0.2652965,-9.596407,24.29481,24.29481,1000,1000,0,0,,,,
0.0005206668,0.0001072587,2.71E-05,0.1832324,-0.2834843,-9.570224,24.29491,24.29491,1000,1000,0,0,,,,
0.0006979897,0.0007652034,0.0001930397,0.1899769,-0.2970217,-9.577715,24.29495,24.29495,1000,1000,0,0,,,,
-0.0001167495,0.0007455162,3.13E-05,0.1797757,-0.3080358,-9.568587,24.29495,24.29495,1000,1000,0,0,,,,
-9.95E-05,-0.0002548246,-0.0002593635,0.1901206,-0.2804043,-9.600247,24.29495,24.29495,1000,1000,0,0,,,,
-0.0009196684,0.0006854024,-0.0005245707,0.196877,-0.2989133,-9.580433,24.29495,24.29495,1000,1000,0,0,,,,
0.0003652821,0.0001329197,-0.0008355778,0.1730446,-0.3014254,-9.57084,24.29495,24.29495,1000,1000,0,0,,,,
0.0004320348,0.0003965762,0.0004092258,0.1688685,-0.2942368,-9.584781,24.29495,24.29495,1000,1000,0,0,,,,
-0.0003494839,0.0005448094,0.0006772936,0.1506596,-0.3040792,-9.596138,24.295,24.295,1000,1000,0,0,,,,
-0.00033979,-2.69E-05,0.0008922293,0.1608101,-0.2974748,-9.573071,24.29529,24.29529,1000,1000,0,0,,,,
-0.0009890394,-8.69E-05,-5.58E-06,0.1558047,-0.3150349,-9.566093,24.29587,24.29587,1000,1000,0,0,,,,
-0.001025384,0.0007466535,0.0003474093,0.173327,-0.3076047,-9.564534,24.29642,24.29642,1000,1000,0,0,,,,
-0.0003597207,0.0003194943,0.0008550302,0.1689188,-0.3014669,-9.589172,24.29702,24.29702,1000,1000,0,0,,,,
-0.0004326138,2.15E-05,0.001260421,0.1530438,-0.2606617,-9.561672,24.2978,24.2978,1000,1000,0,0,,,,
-0.001005732,0.0009303588,0.0008900717,0.1568334,-0.2500429,-9.548831,24.2986,24.2986,1000,1000,0,0,,,,
-0.000490098,0.001351344,0.0006720943,0.2084582,-0.2295873,-9.537975,24.2993,24.2993,1000,1000,0,0,,,,
-0.00178932,0.001531834,0.001893467,0.2194334,-0.2542872,-9.554418,24.30002,24.30002,1000,1000,0,0,,,,
-0.001936252,0.001717774,0.002573821,0.2249432,-0.3204956,-9.582551,24.30073,24.30073,1000,1000,0,0,,,,
-0.003321668,0.0009470213,0.003675582,0.1971068,-0.3455651,-9.602383,24.30133,24.30133,1000,1000,0,0,,,,
-0.002156694,0.000798522,0.003646534,0.1997942,-0.3597462,-9.652984,24.302,24.302,1000,1000,0,0,,,,
-0.003282136,0.0001108265,0.003358795,0.1216613,-0.3494872,-9.628898,24.30281,24.30281,1000,1000,0,0,,,,
-0.002298025,-0.001259769,0.002926076,0.09896623,-0.3094169,-9.622959,24.30362,24.30362,1000,1000,0,0,,,,
-0.00238505,-0.001631453,0.001783277,0.1202713,-0.2879141,-9.582447,24.30457,24.30457,1000,1000,0,0,,,,
-0.001227457,-0.001718358,0.0007872151,0.09527743,-0.2513554,-9.527088,24.30555,24.30555,1000,1000,0,0,,,,
-0.001278084,-0.0008523908,-0.000406004,0.1155683,-0.2148276,-9.519646,24.3066,24.3066,1000,1000,0,0,,,,
-0.0003763757,0.001278546,-0.001917798,0.0977151,-0.1980684,-9.493179,24.30763,24.30763,1000,1000,0,0,,,,
0.0008615876,0.00217847,-0.003854258,0.1193741,-0.1844787,-9.489546,24.30873,24.30873,1000,1000,0,0,,,,
0.001836426,0.003933998,-0.004754177,0.1140946,-0.2073026,-9.508052,24.30952,24.30952,1000,1000,0,0,,,,
0.002390778,0.004067434,-0.005911805,0.1718253,-0.239685,-9.581129,24.30996,24.30996,1000,1000,0,0,,,,
0.003553326,0.003834806,-0.006021888,0.1842247,-0.2682783,-9.598877,24.31042,24.31042,1000,1000,0,0,,,,
0.003795893,0.002968594,-0.006180796,0.2426325,-0.2568356,-9.621973,24.31103,24.31103,1000,1000,0,0,,,,
0.003244813,0.001797811,-0.005069822,0.2418492,-0.2992724,-9.639199,24.31188,24.31188,1000,1000,0,0,,,,
0.003617607,-0.0001908725,-0.00373275,0.2400452,-0.3172258,-9.618568,24.3125,24.3125,1000,1000,0,0,,,,
0.00092273,-0.0003208685,-0.002282351,0.2656317,-0.3476292,-9.64024,24.31307,24.31307,1000,1000,0,0,,,,
4.94E-05,-0.001074489,-0.0003976348,0.2286821,-0.4071131,-9.633617,24.31393,24.31393,1000,1000,0,0,,,,
-0.0008622422,-0.001341986,0.0005729399,0.2546968,-0.4278882,-9.609049,24.31487,24.31487,1000,1000,0,0,,,,
-0.002660509,-0.001948925,0.001955759,0.2194454,-0.4066862,-9.528839,24.31554,24.31554,1000,1000,0,0,,,,
